File: mechanics/data/polymer_tensile/Zugversuch_eng_ETFE-Ref+Groesseneffekt8.TRA
"aktuelle Probe"	"18"
"Einspannlänge"	832.756	"mm"
"Messlänge"	"nicht bekannt"
"Probenbreite b0"	11.83	"mm"
"Probendicke a0"	0.19	"mm"
"Prüfgeschwindigkeit"	150	"mm/min"
"Vorkraft"	0.2	"N"
"Weg nach Bruch"	5	"mm"
"E-Modul"	1166.41	"N/mm²"
"Dehnung bei Fmax"	344.372	"%"
"Dehnung bei Bruch"	344.471	"%"
"obere Streckgrenze"	"nicht bekannt"
"Kraftmaximum"	42.3619	"N/mm²"
"Bruchkraft"	"nicht bekannt"
"Geschwindigkeit E-Modul"	1	"%L0/min"
"Datum"	"20.02.2008"
"Prüfzeit"	"Standardweg"	"Standardkraft"	"Dehnung"	"Traverse abs."
"s"	"mm"	"N"	"%"	"mm"
0.0203125	6.89016e-005	0.206442	8.6127e-005	785.179
1.61031	0.0180376	0.551978	0.0225471	785.197
2.97031	0.0361041	1.10343	0.0451301	785.215
4.33031	0.054203	1.70283	0.0677538	785.234
5.68031	0.0721392	2.29204	0.090174	785.252
7.04031	0.0903684	2.90742	0.11296	785.27
8.40031	0.108467	3.49961	0.135584	785.288
9.75031	0.126566	4.08225	0.158208	785.306
11.1203	0.144795	4.67554	0.180994	785.324
12.4903	0.162927	5.2635	0.203659	785.342
13.8403	0.180993	5.86384	0.226242	785.36
15.2103	0.199304	6.44412	0.24913	785.379
15.6803	0.297904	9.69498	0.37238	785.477
15.8503	0.41016	13.4468	0.5127	785.59
16.0203	0.522709	17.0583	0.653386	785.702
16.1903	0.637227	20.5136	0.796534	785.817
16.3603	0.750492	23.8114	0.938115	785.93
16.5303	0.862813	26.9065	1.07852	786.042
16.7003	0.977168	29.7848	1.22146	786.157
16.8703	1.09118	32.4076	1.36398	786.271
17.0403	1.2029	34.7388	1.50363	786.382
17.2103	1.31613	36.8223	1.64517	786.496
17.3803	1.43075	38.5973	1.78844	786.61
17.5503	1.54331	40.0986	1.92914	786.723
17.7203	1.65629	41.3292	2.07036	786.836
17.8903	1.7712	42.3119	2.21399	786.951
18.0603	1.88426	43.0876	2.35533	787.064
18.2303	1.99595	43.6901	2.49494	787.175
18.4003	2.10985	44.1475	2.63731	787.289
18.6603	2.28425	44.6758	2.85531	787.464
19.0003	2.5099	45.1432	3.13737	787.689
19.3403	2.73602	45.4788	3.42003	787.915
19.6803	2.96488	45.7684	3.7061	788.144
20.0203	3.18946	46.0304	3.98682	788.369
20.3603	3.41683	46.2745	4.27104	788.596
20.7003	3.64379	46.5379	4.55473	788.823
21.0403	3.86988	46.8109	4.83735	789.049
21.3803	4.0974	47.0953	5.12175	789.277
21.7203	4.32263	47.3667	5.40328	789.502
22.0603	4.5509	47.6786	5.68862	789.73
22.4003	4.77686	47.9691	5.97107	789.956
22.7403	5.00261	48.2767	6.25326	790.182
23.0803	5.23122	48.5999	6.53903	790.411
23.4203	5.45625	48.9293	6.82032	790.636
23.7603	5.68379	49.2643	7.10474	790.863
24.1003	5.91006	49.6061	7.38758	791.089
24.4403	6.1364	49.958	7.6705	791.316
24.7803	6.36434	50.2912	7.95543	791.544
25.1203	6.58934	50.6439	8.23668	791.769
25.4603	6.81735	50.9992	8.52169	791.997
25.8003	7.04346	51.335	8.80432	792.223
26.1403	7.26968	51.6834	9.0871	792.449
26.4803	7.49784	52.017	9.3723	792.677
26.8203	7.72276	52.3574	9.65345	792.902
27.1603	7.95048	52.6935	9.93809	793.13
27.5003	8.17704	53.0097	10.2213	793.356
27.8403	8.40287	53.3277	10.5036	793.582
28.1803	8.63083	53.627	10.7885	793.81
28.5203	8.8563	53.9305	11.0704	794.036
28.8603	9.08422	54.2066	11.3553	794.264
29.2003	9.3098	54.4803	11.6373	794.489
29.5403	9.5361	54.7476	11.9201	794.715
29.8803	9.76486	55.0018	12.2061	794.944
30.2203	9.98944	55.2476	12.4868	795.169
30.5603	10.2168	55.4822	12.7711	795.396
30.9003	10.4437	55.6986	13.0546	795.623
31.2403	10.6699	55.8975	13.3373	795.849
31.5803	10.8974	56.0903	13.6217	796.077
31.9203	11.1227	56.2703	13.9034	796.302
32.2603	11.351	56.4574	14.1887	796.53
32.6003	11.5768	56.6173	14.4711	796.756
32.9403	11.8026	56.7578	14.7533	796.982
33.2803	12.0313	56.9227	15.0391	797.211
33.6203	12.2563	57.0493	15.3204	797.436
33.9603	12.4838	57.1651	15.6048	797.663
34.3003	12.7101	57.282	15.8876	797.889
34.6403	12.9364	57.4002	16.1705	798.116
34.9803	13.1644	57.4879	16.4555	798.344
35.3203	13.3894	57.5796	16.7367	798.569
35.6603	13.6173	57.6763	17.0216	798.797
36.0003	13.8435	57.7401	17.3044	799.023
36.3403	14.0696	57.8148	17.587	799.249
36.6803	14.2978	57.8786	17.8723	799.477
37.0203	14.5227	57.9378	18.1534	799.702
37.3603	14.7505	57.9844	18.4381	799.93
37.7003	14.9771	58.045	18.7213	800.156
38.0403	15.2029	58.089	19.0036	800.382
38.3803	15.4308	58.1393	19.2885	800.61
38.7203	15.6563	58.1885	19.5704	800.836
39.0603	15.8843	58.229	19.8553	801.064
39.4003	16.1098	58.2674	20.1373	801.289
39.7403	16.3361	58.3116	20.4201	801.515
40.0803	16.5649	58.3474	20.7061	801.744
40.4203	16.7894	58.3844	20.9868	801.969
40.7603	17.0168	58.4028	21.271	802.196
41.1003	17.2438	58.4352	21.5547	802.423
41.4403	17.4699	58.4593	21.8373	802.649
41.7803	17.6974	58.4857	22.1218	802.877
42.1203	17.9227	58.499	22.4034	803.102
42.4603	18.151	58.538	22.6887	803.33
42.8003	18.3769	58.5617	22.9711	803.556
43.1403	18.6025	58.5709	23.2532	803.782
43.4803	18.8314	58.5958	23.5392	804.011
43.8203	19.0563	58.6068	23.8204	804.236
44.1603	19.2838	58.6204	24.1048	804.463
44.5003	19.5101	58.6358	24.3876	804.689
44.8403	19.7364	58.6557	24.6705	804.916
45.1803	19.9644	58.6737	24.9555	805.144
45.5203	20.1893	58.7019	25.2366	805.369
45.8603	20.4173	58.716	25.5217	805.597
46.2003	20.6435	58.7257	25.8043	805.823
46.5403	20.8697	58.7524	26.0871	806.049
46.8803	21.0978	58.7704	26.3723	806.277
47.2203	21.3227	58.7939	26.6534	806.502
47.5603	21.5505	58.8144	26.9381	806.73
47.9003	21.777	58.8398	27.2213	806.956
48.2403	22.0029	58.8724	27.5036	807.182
48.5803	22.2308	58.8893	27.7885	807.41
48.9203	22.4563	58.9238	28.0703	807.636
49.2603	22.6843	58.9533	28.3553	807.864
49.6003	22.9099	58.9793	28.6374	808.089
49.9403	23.1361	59.0007	28.9201	808.315
50.2803	23.365	59.0236	29.2062	808.544
50.6203	23.5894	59.0487	29.4868	808.769
50.9603	23.8168	59.065	29.771	808.996
51.3003	24.0438	59.0846	30.0547	809.223
51.6403	24.2699	59.097	30.3374	809.449
51.9803	24.4974	59.1108	30.6218	809.677
52.3203	24.7227	59.1195	30.9033	809.902
52.6603	24.951	59.1455	31.1887	810.13
53.0003	25.1769	59.1553	31.4711	810.356
53.3403	25.4026	59.1553	31.7532	810.582
53.6803	25.6313	59.1864	32.0392	810.811
54.0203	25.8563	59.1991	32.3204	811.036
54.3603	26.0837	59.2123	32.6047	811.263
54.7003	26.31	59.2309	32.8876	811.489
55.0403	26.5364	59.2493	33.1705	811.716
55.3803	26.7645	59.2535	33.4556	811.944
55.7203	26.9894	59.2709	33.7367	812.169
56.0603	27.2173	59.2908	34.0216	812.397
56.4003	27.4435	59.295	34.3044	812.623
56.7403	27.6697	59.3123	34.5871	812.849
57.0803	27.8978	59.3283	34.8722	813.077
57.4203	28.1228	59.3391	35.1535	813.302
57.7603	28.3505	59.3515	35.4381	813.53
58.1003	28.577	59.3623	35.7213	813.756
58.4403	28.8029	59.3723	36.0036	813.982
58.7803	29.0308	59.3913	36.2885	814.21
59.1203	29.2563	59.4215	36.5704	814.436
59.4603	29.4842	59.434	36.8552	814.664
59.8003	29.7099	59.456	37.1374	814.889
60.1403	29.9361	59.4723	37.4202	815.116
60.4803	30.1648	59.4911	37.7061	815.344
60.8203	30.3894	59.5221	37.9868	815.569
61.1603	30.6168	59.535	38.271	815.796
61.5003	30.8438	59.5578	38.5547	816.023
61.8403	31.0699	59.5766	38.8374	816.249
62.1803	31.2973	59.6008	39.1217	816.477
62.5203	31.5227	59.6122	39.4033	816.702
62.8603	31.7509	59.6389	39.6887	816.93
63.2003	31.9768	59.6581	39.971	817.156
63.5403	32.2026	59.6641	40.2532	817.382
63.8803	32.4313	59.6937	40.5391	817.611
64.2203	32.6563	59.7029	40.8204	817.836
64.5603	32.8838	59.7191	41.1047	818.063
64.9003	33.11	59.7302	41.3875	818.289
65.2403	33.3364	59.754	41.6705	818.516
65.5803	33.5644	59.7587	41.9555	818.744
65.9203	33.7893	59.7753	42.2367	818.969
66.2603	34.0173	59.7959	42.5217	819.197
66.6003	34.2435	59.8067	42.8044	819.423
66.9403	34.4696	59.8247	43.087	819.649
67.2803	34.6978	59.8321	43.3723	819.877
67.6203	34.9227	59.8369	43.6534	820.102
67.9603	35.1505	59.8573	43.9381	820.33
68.3003	35.377	59.8694	44.2213	820.556
68.6403	35.6029	59.8852	44.5036	820.782
68.9803	35.8308	59.8955	44.7885	821.01
69.3203	36.0563	59.92	45.0703	821.236
69.6603	36.2842	59.9286	45.3553	821.464
70.0003	36.5098	59.9473	45.6373	821.689
70.3403	36.7361	59.9585	45.9201	821.915
70.6803	36.9648	59.9775	46.2061	822.144
71.0203	37.1893	59.9957	46.4867	822.369
71.3603	37.4168	60.0043	46.771	822.596
71.7003	37.6438	60.0214	47.0547	822.823
72.0403	37.8699	60.0305	47.3374	823.049
72.3803	38.0974	60.0543	47.6217	823.277
72.7203	38.3226	60.0593	47.9033	823.502
73.0603	38.551	60.0773	48.1887	823.73
73.4003	38.7768	60.0924	48.471	823.956
73.7403	39.0026	60.0958	48.7532	824.182
74.0803	39.2313	60.1198	49.0391	824.411
74.4203	39.4563	60.1359	49.3204	824.636
74.7603	39.6837	60.1444	49.6047	824.863
75.1003	39.9101	60.1601	49.8876	825.089
75.4403	40.1364	60.1947	50.1705	825.316
75.7803	40.3644	60.2043	50.4555	825.544
76.1203	40.5894	60.2343	50.7367	825.769
76.4603	40.8173	60.2741	51.0216	825.997
76.8003	41.0435	60.2937	51.3044	826.223
77.1403	41.2697	60.3279	51.5871	826.449
77.4803	41.4978	60.3498	51.8723	826.677
77.8203	41.7227	60.3669	52.1534	826.902
78.1603	41.9505	60.3887	52.4381	827.13
78.5003	42.1771	60.4078	52.7214	827.356
78.8403	42.4029	60.4178	53.0036	827.582
79.1803	42.6308	60.4279	53.2885	827.81
79.5203	42.8563	60.4424	53.5704	828.036
79.8603	43.0842	60.4512	53.8552	828.264
80.2003	43.3099	60.4713	54.1373	828.489
80.5403	43.5361	60.491	54.4201	828.715
80.8803	43.7649	60.5003	54.7062	828.944
81.2203	43.9894	60.5227	54.9867	829.169
81.5603	44.2168	60.5388	55.271	829.396
81.9003	44.4438	60.5531	55.5547	829.623
82.2403	44.6699	60.5695	55.8374	829.849
82.5803	44.8974	60.5949	56.1217	830.077
82.9203	45.1227	60.6065	56.4034	830.302
83.2603	45.351	60.6328	56.6887	830.53
83.6003	45.5769	60.6554	56.9711	830.756
83.9403	45.8025	60.6623	57.2532	830.982
84.2803	46.0313	60.6922	57.5391	831.211
84.6203	46.2563	60.712	57.8204	831.436
84.9603	46.4838	60.7244	58.1047	831.663
85.3003	46.7101	60.732	58.3876	831.889
85.6403	46.9364	60.7537	58.6705	832.116
85.9803	47.1644	60.7591	58.9555	832.344
86.3203	47.3893	60.7798	59.2367	832.569
86.6603	47.6173	60.7972	59.5216	832.797
87.0003	47.8435	60.8008	59.8043	833.023
87.3403	48.0697	60.8251	60.0871	833.249
87.6803	48.2977	60.8348	60.3722	833.477
88.0203	48.5227	60.8422	60.6534	833.702
88.3603	48.7505	60.8538	60.9381	833.93
88.7003	48.9771	60.8619	61.2214	834.156
89.0403	49.2029	60.8784	61.5036	834.382
89.3803	49.4307	60.88	61.7884	834.61
89.7203	49.6563	60.8981	62.0704	834.836
90.0603	49.8842	60.9099	62.3553	835.064
90.4003	50.1098	60.9285	62.6373	835.289
90.7403	50.3361	60.9459	62.9201	835.515
91.0803	50.5648	60.9644	63.2061	835.744
91.4203	50.7894	60.9909	63.4867	835.969
91.7603	51.0168	61.0066	63.771	836.196
92.1003	51.2438	61.0357	64.0547	836.423
92.4403	51.4699	61.0512	64.3373	836.649
92.7803	51.6975	61.0754	64.6218	836.877
93.1203	51.9227	61.0834	64.9033	837.102
93.4603	52.1509	61.1019	65.1887	837.33
93.8003	52.3769	61.111	65.4711	837.556
94.1403	52.6026	61.1211	65.7533	837.782
94.4803	52.8313	61.1367	66.0392	838.011
94.8203	53.0563	61.1454	66.3204	838.236
95.1603	53.2838	61.1544	66.6047	838.463
95.5003	53.5101	61.176	66.8876	838.689
95.8403	53.7364	61.2039	67.1705	838.916
96.1803	53.9643	61.2028	67.4554	839.144
96.5203	54.1893	61.2217	67.7366	839.369
96.8603	54.4173	61.2366	68.0216	839.597
97.2003	54.6435	61.2409	68.3043	839.823
97.5403	54.8696	61.2573	68.587	840.049
97.8803	55.0978	61.2694	68.8723	840.277
98.2203	55.3227	61.2766	69.1534	840.502
98.5603	55.5505	61.2968	69.4381	840.73
98.9003	55.777	61.3118	69.7213	840.956
99.2403	56.0029	61.3242	70.0036	841.182
99.5803	56.2308	61.3455	70.2885	841.41
99.9203	56.4563	61.3733	70.5703	841.636
100.26	56.6842	61.3932	70.8552	841.864
100.6	56.9099	61.4034	71.1373	842.089
100.94	57.1361	61.4247	71.4201	842.315
101.28	57.3649	61.4364	71.7061	842.544
101.62	57.5894	61.4581	71.9868	842.769
101.96	57.8168	61.4726	72.271	842.996
102.3	58.0437	61.4919	72.5547	843.223
102.64	58.2699	61.5065	72.8374	843.449
102.98	58.4974	61.5265	73.1217	843.677
103.32	58.7227	61.5251	73.4034	843.902
103.66	58.951	61.5513	73.6887	844.13
104	59.1768	61.5656	73.971	844.356
104.34	59.4026	61.5709	74.2533	844.582
104.68	59.6313	61.5958	74.5392	844.811
105.02	59.8563	61.6003	74.8203	845.036
105.36	60.0837	61.6105	75.1047	845.263
105.7	60.3101	61.6306	75.3876	845.489
106.04	60.5364	61.6513	75.6705	845.716
106.38	60.7644	61.658	75.9555	845.944
106.72	60.9893	61.6815	76.2366	846.169
107.06	61.2173	61.7089	76.5216	846.397
107.4	61.4435	61.7248	76.8044	846.623
107.74	61.6696	61.755	77.087	846.849
108.08	61.8978	61.7809	77.3723	847.077
108.42	62.1228	61.7918	77.6534	847.302
108.76	62.3505	61.8216	77.9381	847.53
109.1	62.5771	61.8385	78.2214	847.756
109.44	62.8028	61.8573	78.5035	847.982
109.78	63.0308	61.8755	78.7885	848.21
110.12	63.2563	61.8949	79.0704	848.436
110.46	63.4842	61.91	79.3553	848.664
110.8	63.7099	61.9257	79.6373	848.889
111.14	63.9361	61.9423	79.9202	849.116
111.48	64.1649	61.9529	80.2061	849.344
111.82	64.3894	61.9753	80.4868	849.569
112.16	64.6168	61.9782	80.7711	849.796
112.5	64.8438	61.9904	81.0547	850.023
112.84	65.0698	62.0106	81.3373	850.249
113.18	65.2974	62.0169	81.6218	850.477
113.52	65.5227	62.0206	81.9033	850.702
113.86	65.7509	62.0485	82.1886	850.93
114.2	65.9769	62.0609	82.4711	851.156
114.54	66.2026	62.0658	82.7532	851.382
114.88	66.4313	62.0879	83.0391	851.611
115.22	66.6563	62.0951	83.3204	851.836
115.56	66.8838	62.099	83.6048	852.063
115.9	67.1101	62.1068	83.8876	852.289
116.24	67.3364	62.1226	84.1705	852.516
116.58	67.5644	62.1186	84.4555	852.744
116.92	67.7894	62.1303	84.7367	852.969
117.26	68.0173	62.1505	85.0216	853.197
117.6	68.2436	62.1559	85.3045	853.423
117.94	68.4697	62.1686	85.5871	853.649
118.28	68.6978	62.1731	85.8722	853.877
118.62	68.9227	62.1849	86.1534	854.102
118.96	69.1505	62.1958	86.4381	854.33
119.3	69.3771	62.2129	86.7214	854.557
119.64	69.6029	62.2247	87.0036	854.782
119.98	69.8308	62.2336	87.2885	855.01
120.32	70.0563	62.2587	87.5704	855.236
120.66	70.2842	62.2751	87.8553	855.464
121	70.5099	62.2992	88.1373	855.689
121.34	70.7361	62.3171	88.4201	855.915
121.68	70.9649	62.3292	88.7061	856.144
122.02	71.1894	62.345	88.9868	856.369
122.36	71.4169	62.3588	89.2711	856.596
122.7	71.6437	62.3684	89.5547	856.823
123.04	71.8699	62.3837	89.8374	857.049
123.38	72.0974	62.4	90.1217	857.277
123.72	72.3227	62.397	90.4034	857.502
124.06	72.5509	62.4147	90.6886	857.73
124.4	72.7769	62.429	90.9711	857.956
124.74	73.0025	62.4353	91.2531	858.182
125.08	73.2313	62.4592	91.5391	858.411
125.42	73.4563	62.4699	91.8204	858.636
125.76	73.6838	62.4759	92.1047	858.863
126.1	73.91	62.5045	92.3876	859.089
126.44	74.1364	62.5346	92.6705	859.316
126.78	74.3644	62.5376	92.9555	859.544
127.12	74.5893	62.5605	93.2367	859.769
127.46	74.8173	62.5838	93.5216	859.997
127.8	75.0435	62.5924	93.8044	860.223
128.14	75.2696	62.6073	94.087	860.449
128.48	75.4978	62.6227	94.3722	860.677
128.82	75.7227	62.6272	94.6534	860.902
129.16	75.9505	62.6523	94.9381	861.13
129.5	76.1771	62.6683	95.2214	861.356
129.84	76.4029	62.6722	95.5037	861.582
130.18	76.6308	62.686	95.7885	861.81
130.52	76.8563	62.7045	96.0704	862.036
130.86	77.0842	62.7145	96.3553	862.264
131.2	77.3099	62.7416	96.6374	862.489
131.54	77.5361	62.7639	96.9201	862.715
131.88	77.7649	62.7864	97.2061	862.944
132.22	77.9894	62.8126	97.4868	863.169
132.56	78.2168	62.8289	97.771	863.396
132.9	78.4438	62.8573	98.0548	863.623
133.24	78.6698	62.8712	98.3373	863.849
133.58	78.8974	62.8925	98.6217	864.077
133.92	79.1227	62.8983	98.9034	864.302
134.26	79.351	62.9233	99.1888	864.53
134.6	79.5768	62.9336	99.4709	864.756
134.94	79.8026	62.941	99.7533	864.982
135.28	80.0313	62.972	100.039	865.211
135.62	80.2563	62.9778	100.32	865.436
135.96	80.4838	62.9919	100.605	865.663
136.3	80.7101	63.0071	100.888	865.889
136.64	80.9364	63.0293	101.17	866.116
136.98	81.1644	63.0414	101.455	866.344
137.32	81.3893	63.0652	101.737	866.569
137.66	81.6173	63.0939	102.022	866.797
138	81.8435	63.1118	102.304	867.023
138.34	82.0696	63.1361	102.587	867.249
138.68	82.2978	63.1508	102.872	867.477
139.02	82.5227	63.1671	103.153	867.702
139.36	82.7505	63.1771	103.438	867.93
139.7	82.977	63.1959	103.721	868.156
140.04	83.2029	63.2205	104.004	868.382
140.38	83.4308	63.2346	104.289	868.61
140.72	83.6563	63.2616	104.57	868.836
141.06	83.8841	63.2727	104.855	869.064
141.4	84.1099	63.299	105.137	869.289
141.74	84.3361	63.312	105.42	869.516
142.08	84.5649	63.3254	105.706	869.744
142.42	84.7894	63.3407	105.987	869.969
142.76	85.0168	63.358	106.271	870.196
143.1	85.2438	63.3815	106.555	870.423
143.44	85.4698	63.3963	106.837	870.649
143.78	85.6974	63.4194	107.122	870.877
144.12	85.9227	63.4314	107.403	871.102
144.46	86.151	63.4625	107.689	871.33
144.8	86.3769	63.4774	107.971	871.556
145.14	86.6026	63.4977	108.253	871.782
145.48	86.8313	63.5244	108.539	872.011
145.82	87.0563	63.5391	108.82	872.236
146.16	87.2838	63.546	109.105	872.463
146.5	87.51	63.5629	109.387	872.689
146.84	87.7364	63.5855	109.671	872.916
147.18	87.9644	63.5838	109.956	873.144
147.52	88.1893	63.6085	110.237	873.369
147.86	88.4174	63.625	110.522	873.597
148.2	88.6435	63.6311	110.804	873.823
148.54	88.8696	63.6535	111.087	874.049
148.88	89.0978	63.6654	111.372	874.277
149.22	89.3227	63.6848	111.653	874.502
149.56	89.5505	63.6989	111.938	874.73
149.9	89.7771	63.7267	112.221	874.956
150.24	90.0029	63.7485	112.504	875.182
150.58	90.2308	63.7659	112.789	875.41
150.92	90.4563	63.7938	113.07	875.636
151.26	90.6842	63.814	113.355	875.864
151.6	90.9099	63.8359	113.637	876.089
151.94	91.136	63.8522	113.92	876.315
152.28	91.3649	63.8713	114.206	876.544
152.62	91.5894	63.8991	114.487	876.769
152.96	91.8168	63.9113	114.771	876.996
153.3	92.0438	63.9295	115.055	877.223
153.64	92.2699	63.9505	115.337	877.449
153.98	92.4973	63.973	115.622	877.677
154.32	92.7226	63.9697	115.903	877.902
154.66	92.9509	63.9984	116.189	878.13
155	93.1769	64.0285	116.471	878.356
155.34	93.4025	64.0414	116.753	878.582
155.68	93.6313	64.0669	117.039	878.811
156.02	93.8564	64.0935	117.32	879.036
156.36	94.0838	64.113	117.605	879.263
156.7	94.31	64.1426	117.888	879.489
157.04	94.5364	64.1623	118.171	879.716
157.38	94.7644	64.1662	118.456	879.944
157.72	94.9893	64.1874	118.737	880.169
158.06	95.2173	64.2156	119.022	880.397
158.4	95.4435	64.218	119.304	880.623
158.74	95.6697	64.2377	119.587	880.849
159.08	95.8978	64.2515	119.872	881.077
159.42	96.1227	64.2609	120.153	881.302
159.76	96.3504	64.2748	120.438	881.53
160.1	96.5771	64.2861	120.721	881.757
160.44	96.8029	64.2952	121.004	881.982
160.78	97.0308	64.3082	121.288	882.21
161.12	97.2563	64.3187	121.57	882.436
161.46	97.4842	64.3217	121.855	882.664
161.8	97.7099	64.341	122.137	882.889
162.14	97.9361	64.3577	122.42	883.115
162.48	98.1649	64.3692	122.706	883.344
162.82	98.3894	64.3819	122.987	883.569
163.16	98.6168	64.39	123.271	883.796
163.5	98.8437	64.3985	123.555	884.023
163.84	99.0699	64.4116	123.837	884.249
164.18	99.2974	64.4337	124.122	884.477
164.52	99.5227	64.4341	124.403	884.702
164.86	99.751	64.4629	124.689	884.93
165.2	99.9768	64.4792	124.971	885.156
165.54	100.203	64.4787	125.253	885.382
165.88	100.431	64.5065	125.539	885.611
166.22	100.656	64.5155	125.82	885.836
166.56	100.884	64.5223	126.105	886.063
166.9	101.11	64.5405	126.388	886.289
167.24	101.336	64.5604	126.671	886.516
167.58	101.564	64.5629	126.955	886.744
167.92	101.789	64.5814	127.237	886.969
168.26	102.017	64.5959	127.522	887.197
168.6	102.243	64.5948	127.804	887.423
168.94	102.47	64.608	128.087	887.649
169.28	102.698	64.6216	128.372	887.877
169.62	102.923	64.6379	128.653	888.102
169.96	103.15	64.6516	128.938	888.33
170.3	103.377	64.666	129.221	888.556
170.64	103.603	64.686	129.504	888.782
170.98	103.831	64.6965	129.789	889.01
171.32	104.056	64.724	130.07	889.236
171.66	104.284	64.7326	130.355	889.464
172	104.51	64.7572	130.637	889.689
172.34	104.736	64.7663	130.92	889.915
172.68	104.965	64.7802	131.206	890.144
173.02	105.189	64.799	131.487	890.369
173.36	105.417	64.8067	131.771	890.596
173.7	105.644	64.818	132.055	890.823
174.04	105.87	64.8369	132.337	891.049
174.38	106.097	64.8562	132.622	891.277
174.72	106.323	64.8568	132.903	891.502
175.06	106.551	64.8782	133.189	891.73
175.4	106.777	64.8891	133.471	891.956
175.74	107.003	64.8979	133.753	892.182
176.08	107.231	64.9175	134.039	892.411
176.42	107.456	64.9256	134.32	892.636
176.76	107.684	64.9397	134.605	892.863
177.1	107.91	64.9623	134.888	893.089
177.44	108.136	64.9888	135.171	893.316
177.78	108.364	65.0002	135.455	893.544
178.12	108.589	65.0269	135.737	893.769
178.46	108.817	65.0512	136.022	893.997
178.8	109.044	65.0751	136.304	894.223
179.14	109.27	65.109	136.587	894.449
179.48	109.498	65.1468	136.872	894.677
179.82	109.723	65.1845	137.153	894.902
180.16	109.95	65.2155	137.438	895.13
180.5	110.177	65.2524	137.721	895.356
180.84	110.403	65.2707	138.004	895.582
181.18	110.631	65.3039	138.288	895.81
181.52	110.856	65.3295	138.57	896.036
181.86	111.084	65.3512	138.855	896.264
182.2	111.31	65.3821	139.137	896.489
182.54	111.536	65.4227	139.42	896.715
182.88	111.765	65.4537	139.706	896.944
183.22	111.989	65.4805	139.987	897.169
183.56	112.217	65.4979	140.271	897.396
183.9	112.444	65.5123	140.555	897.623
184.24	112.67	65.5279	140.837	897.849
184.58	112.897	65.5351	141.122	898.077
184.92	113.123	65.547	141.403	898.302
185.26	113.351	65.5747	141.689	898.53
185.6	113.577	65.5883	141.971	898.756
185.94	113.803	65.6003	142.253	898.982
186.28	114.031	65.6341	142.539	899.211
186.62	114.256	65.6631	142.82	899.436
186.96	114.484	65.6761	143.105	899.663
187.3	114.71	65.7117	143.388	899.889
187.64	114.936	65.7418	143.671	900.116
187.98	115.164	65.7532	143.956	900.344
188.32	115.389	65.7816	144.237	900.569
188.66	115.617	65.8023	144.522	900.797
189	115.843	65.8259	144.804	901.023
189.34	116.07	65.8616	145.087	901.249
189.68	116.298	65.8883	145.372	901.477
190.02	116.523	65.9066	145.653	901.702
190.36	116.75	65.9353	145.938	901.93
190.7	116.977	65.9546	146.221	902.156
191.04	117.203	65.9668	146.504	902.382
191.38	117.431	65.9796	146.788	902.61
191.72	117.656	66.0008	147.07	902.836
192.06	117.884	66.008	147.355	903.064
192.4	118.11	66.0268	147.637	903.289
192.74	118.336	66.0406	147.92	903.515
193.08	118.565	66.0552	148.206	903.744
193.42	118.789	66.0765	148.487	903.969
193.76	119.017	66.0978	148.771	904.196
194.1	119.244	66.1132	149.055	904.423
194.44	119.47	66.1378	149.337	904.649
194.78	119.697	66.1625	149.622	904.877
195.12	119.923	66.1682	149.903	905.102
195.46	120.151	66.1986	150.189	905.33
195.8	120.377	66.2197	150.471	905.556
196.14	120.603	66.2271	150.753	905.782
196.48	120.831	66.2584	151.039	906.011
196.82	121.056	66.2822	151.32	906.236
197.16	121.284	66.3064	151.605	906.463
197.5	121.51	66.347	151.888	906.689
197.84	121.736	66.381	152.17	906.916
198.18	121.964	66.4043	152.455	907.144
198.52	122.189	66.4462	152.737	907.369
198.86	122.417	66.4668	153.022	907.597
199.2	122.643	66.4985	153.304	907.823
199.54	122.87	66.5388	153.587	908.049
199.88	123.098	66.5701	153.872	908.277
200.22	123.323	66.6005	154.153	908.502
200.56	123.551	66.6356	154.438	908.73
200.9	123.777	66.6698	154.721	908.956
201.24	124.003	66.701	155.004	909.182
201.58	124.231	66.7314	155.288	909.41
201.92	124.456	66.7691	155.57	909.636
202.26	124.684	66.7925	155.855	909.864
202.6	124.91	66.8238	156.137	910.089
202.94	125.136	66.8581	156.42	910.315
203.28	125.365	66.8892	156.706	910.544
203.62	125.589	66.925	156.987	910.769
203.96	125.817	66.9503	157.271	910.996
204.3	126.044	66.9732	157.555	911.223
204.64	126.27	66.9989	157.837	911.449
204.98	126.497	67.0263	158.122	911.677
205.32	126.723	67.0344	158.403	911.902
205.66	126.951	67.0592	158.689	912.13
206	127.177	67.0879	158.971	912.356
206.34	127.403	67.1068	159.253	912.582
206.68	127.631	67.1504	159.539	912.811
207.02	127.856	67.1803	159.82	913.036
207.36	128.084	67.2045	160.105	913.263
207.7	128.31	67.2308	160.388	913.489
208.04	128.536	67.2587	160.671	913.716
208.38	128.764	67.2637	160.956	913.944
208.72	128.989	67.2797	161.237	914.169
209.06	129.217	67.3033	161.522	914.397
209.4	129.443	67.3118	161.804	914.623
209.74	129.67	67.3399	162.087	914.849
210.08	129.898	67.3671	162.372	915.077
210.42	130.123	67.4016	162.653	915.302
210.76	130.35	67.4362	162.938	915.53
211.1	130.577	67.4618	163.221	915.756
211.44	130.803	67.4821	163.504	915.982
211.78	131.031	67.5122	163.789	916.21
212.12	131.256	67.5367	164.07	916.436
212.46	131.484	67.5636	164.355	916.664
212.8	131.71	67.5878	164.637	916.889
213.14	131.936	67.6149	164.92	917.115
213.48	132.165	67.6334	165.206	917.344
213.82	132.389	67.6641	165.487	917.569
214.16	132.617	67.6771	165.771	917.796
214.5	132.844	67.6915	166.055	918.023
214.84	133.07	67.7148	166.337	918.249
215.18	133.297	67.7457	166.622	918.477
215.52	133.523	67.7534	166.903	918.702
215.86	133.751	67.7819	167.189	918.93
216.2	133.977	67.8039	167.471	919.156
216.54	134.203	67.8267	167.753	919.382
216.88	134.431	67.8703	168.039	919.611
217.22	134.656	67.8947	168.32	919.836
217.56	134.884	67.9234	168.605	920.063
217.9	135.11	67.9598	168.888	920.289
218.24	135.336	68.004	169.171	920.516
218.58	135.564	68.0262	169.455	920.744
218.92	135.789	68.0712	169.737	920.969
219.26	136.017	68.1032	170.022	921.197
219.6	136.243	68.1276	170.304	921.423
219.94	136.47	68.1704	170.587	921.649
220.28	136.698	68.201	170.872	921.877
220.62	136.923	68.2293	171.153	922.102
220.96	137.15	68.2616	171.438	922.33
221.3	137.377	68.2945	171.721	922.557
221.64	137.603	68.3221	172.004	922.782
221.98	137.831	68.3406	172.288	923.01
222.32	138.056	68.3772	172.57	923.236
222.66	138.284	68.3942	172.855	923.464
223	138.51	68.4172	173.137	923.689
223.34	138.736	68.4322	173.42	923.916
223.68	138.965	68.4427	173.706	924.144
224.02	139.189	68.4612	173.987	924.369
224.36	139.417	68.4716	174.271	924.596
224.7	139.644	68.4865	174.555	924.823
225.04	139.87	68.5082	174.837	925.049
225.38	140.097	68.5368	175.122	925.277
225.72	140.323	68.5537	175.403	925.502
226.06	140.551	68.5868	175.689	925.73
226.4	140.777	68.6228	175.971	925.956
226.74	141.003	68.6458	176.253	926.182
227.08	141.231	68.6825	176.539	926.411
227.42	141.456	68.7134	176.82	926.636
227.76	141.684	68.7391	177.105	926.863
228.1	141.91	68.7699	177.387	927.089
228.44	142.136	68.814	177.671	927.316
228.78	142.364	68.8276	177.955	927.544
229.12	142.589	68.8591	178.237	927.769
229.46	142.817	68.8867	178.522	927.997
229.8	143.043	68.9046	178.804	928.223
230.14	143.27	68.9387	179.087	928.449
230.48	143.498	68.9669	179.372	928.677
230.82	143.723	68.9856	179.653	928.902
231.16	143.951	69.0124	179.938	929.13
231.5	144.177	69.0556	180.221	929.356
231.84	144.403	69.0857	180.504	929.582
232.18	144.631	69.1175	180.789	929.81
232.52	144.856	69.1539	181.07	930.036
232.86	145.084	69.1807	181.355	930.264
233.2	145.31	69.2177	181.637	930.489
233.54	145.536	69.2479	181.92	930.715
233.88	145.765	69.2728	182.206	930.944
234.22	145.989	69.3172	182.487	931.169
234.56	146.217	69.3466	182.771	931.396
234.9	146.444	69.3814	183.055	931.623
235.24	146.67	69.4167	183.337	931.849
235.58	146.897	69.4599	183.622	932.077
235.92	147.123	69.496	183.903	932.302
236.26	147.351	69.5466	184.189	932.53
236.6	147.577	69.5817	184.471	932.756
236.94	147.803	69.6119	184.753	932.982
237.28	148.031	69.6428	185.039	933.211
237.62	148.256	69.6633	185.32	933.436
237.96	148.484	69.6781	185.605	933.663
238.3	148.71	69.6964	185.888	933.889
238.64	148.936	69.7174	186.171	934.116
238.98	149.164	69.7216	186.456	934.344
239.32	149.389	69.7539	186.737	934.569
239.66	149.617	69.7779	187.022	934.797
240	149.844	69.8025	187.304	935.023
240.34	150.07	69.8446	187.587	935.249
240.68	150.298	69.8683	187.872	935.477
241.02	150.523	69.8899	188.153	935.702
241.36	150.75	69.9195	188.438	935.93
241.7	150.977	69.9584	188.721	936.156
242.04	151.203	69.988	189.004	936.382
242.38	151.431	70.0233	189.289	936.61
242.72	151.656	70.059	189.57	936.836
243.06	151.884	70.088	189.855	937.064
243.4	152.11	70.1215	190.137	937.289
243.74	152.336	70.1475	190.42	937.515
244.08	152.565	70.1737	190.706	937.744
244.42	152.789	70.2057	190.987	937.969
244.76	153.017	70.2168	191.271	938.196
245.1	153.244	70.2356	191.555	938.423
245.44	153.47	70.2587	191.837	938.649
245.78	153.697	70.2837	192.122	938.877
246.12	153.923	70.2997	192.403	939.102
246.46	154.151	70.3358	192.689	939.33
246.8	154.377	70.3525	192.971	939.556
247.14	154.603	70.3674	193.253	939.782
247.48	154.831	70.4031	193.539	940.011
247.82	155.056	70.4248	193.82	940.236
248.16	155.284	70.4448	194.105	940.463
248.5	155.51	70.4769	194.388	940.689
248.84	155.736	70.5277	194.671	940.916
249.18	155.964	70.558	194.955	941.144
249.52	156.189	70.6163	195.237	941.369
249.86	156.417	70.6565	195.522	941.597
250.2	156.643	70.6858	195.804	941.823
250.54	156.87	70.7302	196.087	942.049
250.88	157.098	70.7679	196.372	942.277
251.22	157.323	70.8092	196.653	942.502
251.56	157.55	70.8494	196.938	942.73
251.9	157.777	70.8974	197.221	942.956
252.24	158.003	70.9231	197.504	943.182
252.58	158.231	70.9491	197.788	943.41
252.92	158.456	70.9856	198.07	943.636
253.26	158.684	71.008	198.355	943.864
253.6	158.91	71.0318	198.637	944.089
253.94	159.136	71.0564	198.92	944.316
254.28	159.365	71.0815	199.206	944.544
254.62	159.589	71.1171	199.487	944.769
254.96	159.817	71.144	199.771	944.996
255.3	160.044	71.171	200.055	945.223
255.64	160.27	71.1958	200.337	945.449
255.98	160.497	71.2251	200.622	945.677
256.32	160.723	71.2374	200.903	945.902
256.66	160.951	71.2754	201.189	946.13
257	161.177	71.3	201.471	946.356
257.34	161.403	71.3319	201.753	946.582
257.68	161.631	71.3774	202.039	946.811
258.02	161.856	71.4183	202.32	947.036
258.36	162.084	71.4585	202.605	947.263
258.7	162.31	71.501	202.888	947.489
259.04	162.536	71.5374	203.17	947.716
259.38	162.764	71.5665	203.455	947.944
259.72	162.989	71.6004	203.737	948.169
260.06	163.217	71.6336	204.022	948.397
260.4	163.444	71.6577	204.304	948.623
260.74	163.67	71.6847	204.587	948.849
261.08	163.898	71.7148	204.872	949.077
261.42	164.123	71.7439	205.153	949.302
261.76	164.35	71.7751	205.438	949.53
262.1	164.577	71.7964	205.721	949.756
262.44	164.803	71.8122	206.004	949.982
262.78	165.031	71.8395	206.289	950.21
263.12	165.256	71.8665	206.57	950.436
263.46	165.484	71.8882	206.855	950.664
263.8	165.71	71.9211	207.137	950.889
264.14	165.936	71.9531	207.42	951.115
264.48	166.165	71.974	207.706	951.344
264.82	166.389	72.0064	207.987	951.569
265.16	166.617	72.0296	208.271	951.796
265.5	166.844	72.0579	208.555	952.023
265.84	167.07	72.091	208.837	952.249
266.18	167.297	72.13	209.122	952.477
266.52	167.523	72.156	209.403	952.702
266.86	167.751	72.2115	209.689	952.93
267.2	167.977	72.2584	209.971	953.156
267.54	168.203	72.2932	210.253	953.382
267.88	168.431	72.3449	210.539	953.611
268.22	168.656	72.3845	210.82	953.836
268.56	168.884	72.4115	211.105	954.063
268.9	169.11	72.4505	211.388	954.289
269.24	169.336	72.4961	211.671	954.516
269.58	169.564	72.5174	211.955	954.744
269.92	169.789	72.5528	212.237	954.969
270.26	170.017	72.5859	212.522	955.197
270.6	170.244	72.6055	212.804	955.423
270.94	170.47	72.6428	213.087	955.649
271.28	170.698	72.6639	213.372	955.877
271.62	170.923	72.6995	213.653	956.102
271.96	171.15	72.7362	213.938	956.33
272.3	171.377	72.7727	214.221	956.556
272.64	171.603	72.8051	214.504	956.782
272.98	171.831	72.8443	214.788	957.01
273.32	172.056	72.8995	215.07	957.236
273.66	172.284	72.9385	215.355	957.464
274	172.51	72.9839	215.637	957.689
274.34	172.736	73.0253	215.92	957.915
274.68	172.965	73.0731	216.206	958.144
275.02	173.189	73.1311	216.487	958.369
275.36	173.417	73.1806	216.771	958.596
275.7	173.644	73.234	217.055	958.823
276.04	173.87	73.2865	217.337	959.049
276.38	174.097	73.3415	217.622	959.277
276.72	174.323	73.3699	217.903	959.502
277.06	174.551	73.4205	218.189	959.73
277.4	174.777	73.4655	218.471	959.956
277.74	175.002	73.4924	218.753	960.182
278.08	175.231	73.5401	219.039	960.411
278.42	175.456	73.5752	219.32	960.636
278.76	175.684	73.6147	219.605	960.863
279.1	175.91	73.6634	219.888	961.089
279.44	176.136	73.7146	220.171	961.316
279.78	176.364	73.7433	220.456	961.544
280.12	176.589	73.788	220.737	961.769
280.46	176.817	73.8223	221.022	961.997
280.8	177.043	73.846	221.304	962.223
281.14	177.27	73.8828	221.587	962.449
281.48	177.498	73.9043	221.872	962.677
281.82	177.723	73.9365	222.153	962.902
282.16	177.95	73.9742	222.438	963.13
282.5	178.177	74.0096	222.721	963.356
282.84	178.403	74.0389	223.004	963.582
283.18	178.631	74.0702	223.288	963.81
283.52	178.856	74.1055	223.57	964.036
283.86	179.084	74.1357	223.855	964.264
284.2	179.31	74.1819	224.137	964.489
284.54	179.536	74.2167	224.42	964.715
284.88	179.765	74.2534	224.706	964.944
285.22	179.989	74.2923	224.987	965.169
285.56	180.217	74.3242	225.271	965.396
285.9	180.444	74.3548	225.555	965.623
286.24	180.67	74.381	225.837	965.849
286.58	180.897	74.4162	226.122	966.077
286.92	181.123	74.4374	226.403	966.302
287.26	181.351	74.4864	226.689	966.53
287.6	181.577	74.517	226.971	966.756
287.94	181.803	74.5403	227.253	966.982
288.28	182.031	74.5782	227.539	967.211
288.62	182.256	74.6105	227.82	967.436
288.96	182.484	74.6264	228.105	967.663
289.3	182.71	74.656	228.388	967.889
289.64	182.936	74.692	228.671	968.116
289.98	183.164	74.7111	228.955	968.344
290.32	183.389	74.7473	229.237	968.569
290.66	183.617	74.7831	229.522	968.797
291	183.844	74.8179	229.804	969.023
291.34	184.07	74.8569	230.087	969.249
291.68	184.298	74.8841	230.372	969.477
292.02	184.523	74.9103	230.653	969.702
292.36	184.75	74.9482	230.938	969.93
292.7	184.977	74.9866	231.221	970.156
293.04	185.203	75.0203	231.504	970.382
293.38	185.431	75.0589	231.789	970.61
293.72	185.656	75.1009	232.07	970.836
294.06	185.884	75.1422	232.355	971.064
294.4	186.11	75.1986	232.637	971.289
294.74	186.336	75.2562	232.92	971.515
295.08	186.565	75.3218	233.206	971.744
295.42	186.789	75.3776	233.487	971.969
295.76	187.017	75.4295	233.771	972.196
296.1	187.244	75.4815	234.055	972.423
296.44	187.47	75.5249	234.337	972.649
296.78	187.697	75.5746	234.622	972.877
297.12	187.923	75.5986	234.903	973.102
297.46	188.151	75.6393	235.189	973.33
297.8	188.377	75.6722	235.471	973.556
298.14	188.602	75.688	235.753	973.782
298.48	188.831	75.7256	236.039	974.011
298.82	189.056	75.754	236.32	974.236
299.16	189.284	75.7797	236.605	974.463
299.5	189.51	75.8106	236.888	974.689
299.84	189.736	75.8482	237.171	974.916
300.18	189.964	75.8734	237.455	975.144
300.52	190.189	75.9131	237.737	975.369
300.86	190.417	75.9538	238.022	975.597
301.2	190.643	75.9852	238.304	975.823
301.54	190.87	76.038	238.587	976.049
301.88	191.098	76.0817	238.872	976.277
302.22	191.323	76.1303	239.153	976.502
302.56	191.55	76.1834	239.438	976.73
302.9	191.777	76.2403	239.721	976.956
303.24	192.003	76.2967	240.004	977.182
303.58	192.231	76.3525	240.288	977.41
303.92	192.456	76.4289	240.57	977.636
304.26	192.684	76.4835	240.855	977.864
304.6	192.91	76.5531	241.137	978.089
304.94	193.136	76.612	241.42	978.315
305.28	193.365	76.6618	241.706	978.544
305.62	193.589	76.7181	241.987	978.769
305.96	193.817	76.7688	242.271	978.996
306.3	194.044	76.8104	242.555	979.223
306.64	194.27	76.8555	242.837	979.449
306.98	194.497	76.8956	243.122	979.677
307.32	194.723	76.9212	243.403	979.902
307.66	194.951	76.9575	243.689	980.13
308	195.177	76.989	243.971	980.356
308.34	195.403	77.0091	244.253	980.582
308.68	195.631	77.0451	244.539	980.811
309.02	195.856	77.0757	244.82	981.036
309.36	196.084	77.115	245.105	981.263
309.7	196.31	77.1499	245.388	981.489
310.04	196.536	77.1934	245.67	981.716
310.38	196.764	77.2189	245.955	981.944
310.72	196.989	77.27	246.237	982.169
311.06	197.217	77.3142	246.522	982.397
311.4	197.443	77.3444	246.804	982.623
311.74	197.67	77.3902	247.087	982.849
312.08	197.898	77.44	247.372	983.077
312.42	198.123	77.4834	247.653	983.302
312.76	198.351	77.53	247.938	983.53
313.1	198.577	77.5662	248.221	983.756
313.44	198.803	77.6072	248.504	983.982
313.78	199.031	77.6467	248.788	984.21
314.12	199.256	77.6827	249.07	984.436
314.46	199.484	77.7075	249.355	984.664
314.8	199.71	77.752	249.637	984.889
315.14	199.936	77.7967	249.92	985.115
315.48	200.165	77.8299	250.206	985.344
315.82	200.389	77.8797	250.487	985.569
316.16	200.617	77.9104	250.771	985.796
316.5	200.844	77.957	251.055	986.023
316.84	201.07	78.0121	251.337	986.249
317.18	201.297	78.0595	251.622	986.477
317.52	201.523	78.0946	251.903	986.702
317.86	201.751	78.1618	252.189	986.93
318.2	201.977	78.2217	252.471	987.156
318.54	202.203	78.2604	252.753	987.382
318.88	202.431	78.3293	253.039	987.611
319.22	202.656	78.3856	253.32	987.836
319.56	202.884	78.4368	253.605	988.063
319.9	203.11	78.5006	253.888	988.289
320.24	203.336	78.5691	254.171	988.516
320.58	203.564	78.6173	254.455	988.744
320.92	203.789	78.6888	254.737	988.969
321.26	204.017	78.7529	255.022	989.197
321.6	204.243	78.811	255.304	989.423
321.94	204.47	78.8684	255.587	989.649
322.28	204.698	78.9152	255.872	989.877
322.62	204.923	78.963	256.153	990.102
322.96	205.15	79.0093	256.438	990.33
323.3	205.377	79.0575	256.721	990.556
323.64	205.603	79.0981	257.004	990.782
323.98	205.831	79.1351	257.289	991.01
324.32	206.056	79.1846	257.57	991.236
324.66	206.284	79.2202	257.855	991.464
325	206.51	79.268	258.137	991.689
325.34	206.736	79.3095	258.42	991.916
325.68	206.965	79.3484	258.706	992.144
326.02	207.189	79.4027	258.987	992.369
326.36	207.417	79.4424	259.271	992.596
326.7	207.644	79.4988	259.555	992.823
327.04	207.87	79.5485	259.837	993.049
327.38	208.097	79.6115	260.122	993.277
327.72	208.323	79.659	260.403	993.502
328.06	208.551	79.7132	260.689	993.73
328.4	208.777	79.7553	260.971	993.956
328.74	209.003	79.7929	261.253	994.182
329.08	209.231	79.84	261.539	994.411
329.42	209.456	79.8794	261.82	994.636
329.76	209.684	79.9124	262.105	994.863
330.1	209.91	79.9578	262.388	995.089
330.44	210.136	80.0048	262.671	995.316
330.78	210.364	80.0368	262.955	995.544
331.12	210.589	80.0871	263.237	995.769
331.46	210.817	80.1363	263.522	995.997
331.8	211.043	80.1647	263.804	996.223
332.14	211.27	80.2182	264.087	996.449
332.48	211.498	80.2635	264.372	996.677
332.82	211.723	80.3007	264.653	996.902
333.16	211.951	80.3499	264.938	997.13
333.5	212.177	80.3969	265.221	997.356
333.84	212.403	80.4372	265.504	997.582
334.18	212.631	80.4754	265.788	997.81
334.52	212.856	80.516	266.07	998.036
334.86	213.084	80.5613	266.355	998.264
335.2	213.31	80.6061	266.637	998.489
335.54	213.536	80.6573	266.92	998.716
335.88	213.765	80.7026	267.206	998.944
336.22	213.989	80.7492	267.487	999.169
336.56	214.217	80.7988	267.771	999.396
336.9	214.444	80.8437	268.055	999.623
337.24	214.67	80.8861	268.337	999.849
337.58	214.897	80.932	268.622	1000.08
337.92	215.123	80.9673	268.903	1000.3
338.26	215.351	81.0322	269.189	1000.53
338.6	215.577	81.0833	269.471	1000.76
338.94	215.803	81.1326	269.753	1000.98
339.28	216.031	81.2005	270.039	1001.21
339.62	216.256	81.2541	270.32	1001.44
339.96	216.484	81.3075	270.605	1001.66
340.3	216.71	81.3633	270.888	1001.89
340.64	216.936	81.4188	271.17	1002.12
340.98	217.164	81.4575	271.456	1002.34
341.32	217.389	81.5018	271.737	1002.57
341.66	217.617	81.5404	272.022	1002.8
342	217.844	81.5769	272.304	1003.02
342.34	218.07	81.6305	272.587	1003.25
342.68	218.298	81.6797	272.872	1003.48
343.02	218.523	81.7261	273.153	1003.7
343.36	218.751	81.7743	273.438	1003.93
343.7	218.977	81.8326	273.721	1004.16
344.04	219.203	81.8798	274.004	1004.38
344.38	219.431	81.9306	274.288	1004.61
344.72	219.656	81.9851	274.57	1004.84
345.06	219.884	82.0255	274.855	1005.06
345.4	220.11	82.0813	275.137	1005.29
345.74	220.336	82.1286	275.42	1005.52
346.08	220.565	82.1747	275.706	1005.74
346.42	220.789	82.2224	275.987	1005.97
346.76	221.017	82.2648	276.271	1006.2
347.1	221.244	82.3103	276.555	1006.42
347.44	221.47	82.3545	276.837	1006.65
347.78	221.697	82.4021	277.122	1006.88
348.12	221.923	82.443	277.403	1007.1
348.46	222.151	82.4957	277.689	1007.33
348.8	222.377	82.5395	277.971	1007.56
349.14	222.603	82.585	278.253	1007.78
349.48	222.831	82.6384	278.539	1008.01
349.82	223.056	82.6882	278.82	1008.24
350.16	223.284	82.7249	279.105	1008.46
350.5	223.51	82.7871	279.388	1008.69
350.84	223.736	82.8539	279.671	1008.92
351.18	223.964	82.9075	279.956	1009.14
351.52	224.189	82.9802	280.237	1009.37
351.86	224.417	83.0433	280.522	1009.6
352.2	224.643	83.0877	280.804	1009.82
352.54	224.87	83.1349	281.087	1010.05
352.88	225.098	83.1692	281.372	1010.28
353.22	225.323	83.2057	281.653	1010.5
353.56	225.55	83.2519	281.938	1010.73
353.9	225.777	83.3008	282.221	1010.96
354.24	226.003	83.3434	282.504	1011.18
354.58	226.231	83.3759	282.788	1011.41
354.92	226.456	83.4276	283.07	1011.64
355.26	226.684	83.4611	283.355	1011.86
355.6	226.91	83.5066	283.637	1012.09
355.94	227.136	83.5501	283.92	1012.32
356.28	227.365	83.5887	284.206	1012.54
356.62	227.589	83.638	284.487	1012.77
356.96	227.817	83.6941	284.771	1013
357.3	228.044	83.7581	285.055	1013.22
357.64	228.27	83.8173	285.337	1013.45
357.98	228.497	83.8808	285.622	1013.68
358.32	228.723	83.9364	285.903	1013.9
358.66	228.951	84.0013	286.189	1014.13
359	229.177	84.0748	286.471	1014.36
359.34	229.403	84.1296	286.753	1014.58
359.68	229.631	84.2135	287.039	1014.81
360.02	229.856	84.283	287.32	1015.04
360.36	230.084	84.338	287.605	1015.26
360.7	230.31	84.3888	287.888	1015.49
361.04	230.536	84.4499	288.17	1015.72
361.38	230.764	84.4941	288.455	1015.94
361.72	230.989	84.5491	288.737	1016.17
362.06	231.217	84.5966	289.022	1016.4
362.4	231.443	84.6261	289.304	1016.62
362.74	231.67	84.6767	289.587	1016.85
363.08	231.898	84.7259	289.872	1017.08
363.42	232.123	84.7608	290.153	1017.3
363.76	232.35	84.795	290.438	1017.53
364.1	232.577	84.8304	290.721	1017.76
364.44	232.803	84.8603	291.004	1017.98
364.78	233.031	84.894	291.288	1018.21
365.12	233.256	84.9327	291.57	1018.44
365.46	233.484	84.9674	291.855	1018.66
365.8	233.71	85.0164	292.137	1018.89
366.14	233.936	85.0473	292.42	1019.12
366.48	234.165	85.0868	292.706	1019.34
366.82	234.389	85.1261	292.987	1019.57
367.16	234.617	85.1615	293.271	1019.8
367.5	234.844	85.1935	293.555	1020.02
367.84	235.07	85.2297	293.837	1020.25
368.18	235.297	85.2789	294.122	1020.48
368.52	235.523	85.309	294.403	1020.7
368.86	235.751	85.3595	294.689	1020.93
369.2	235.977	85.4016	294.971	1021.16
369.54	236.203	85.4323	295.253	1021.38
369.88	236.431	85.4815	295.539	1021.61
370.22	236.656	85.5216	295.82	1021.84
370.56	236.884	85.555	296.105	1022.06
370.9	237.11	85.6019	296.388	1022.29
371.24	237.336	85.6556	296.671	1022.52
371.58	237.564	85.6846	296.956	1022.74
371.92	237.789	85.7448	297.237	1022.97
372.26	238.017	85.7982	297.522	1023.2
372.6	238.243	85.8507	297.804	1023.42
372.94	238.47	85.9147	298.087	1023.65
373.28	238.698	85.9703	298.372	1023.88
373.62	238.923	86.017	298.653	1024.1
373.96	239.15	86.0831	298.938	1024.33
374.3	239.377	86.1366	299.221	1024.56
374.64	239.603	86.1936	299.504	1024.78
374.98	239.831	86.2582	299.789	1025.01
375.32	240.056	86.3425	300.07	1025.24
375.66	240.284	86.4144	300.355	1025.46
376	240.51	86.4901	300.637	1025.69
376.34	240.736	86.5628	300.92	1025.92
376.68	240.965	86.6245	301.206	1026.14
377.02	241.189	86.7034	301.487	1026.37
377.36	241.417	86.7697	301.771	1026.6
377.7	241.644	86.8384	302.055	1026.82
378.04	241.87	86.9151	302.337	1027.05
378.38	242.097	86.9936	302.622	1027.28
378.72	242.323	87.0545	302.903	1027.5
379.06	242.551	87.1337	303.189	1027.73
379.4	242.777	87.2018	303.471	1027.96
379.74	243.003	87.2495	303.753	1028.18
380.08	243.231	87.3172	304.039	1028.41
380.42	243.456	87.37	304.32	1028.64
380.76	243.684	87.4255	304.605	1028.86
381.1	243.91	87.4805	304.888	1029.09
381.44	244.136	87.5436	305.17	1029.32
381.78	244.364	87.5864	305.456	1029.54
382.12	244.589	87.642	305.737	1029.77
382.46	244.817	87.6869	306.022	1030
382.8	245.044	87.7187	306.304	1030.22
383.14	245.27	87.771	306.587	1030.45
383.48	245.498	87.8019	306.872	1030.68
383.82	245.723	87.8473	307.153	1030.9
384.16	245.95	87.8917	307.438	1031.13
384.5	246.177	87.9476	307.721	1031.36
384.84	246.403	87.9926	308.004	1031.58
385.18	246.631	88.0379	308.288	1031.81
385.52	246.856	88.0977	308.57	1032.04
385.86	247.084	88.1455	308.855	1032.26
386.2	247.31	88.2074	309.137	1032.49
386.54	247.536	88.2723	309.42	1032.72
386.88	247.765	88.3275	309.706	1032.94
387.22	247.989	88.3919	309.987	1033.17
387.56	248.217	88.4477	310.271	1033.4
387.9	248.444	88.5125	310.555	1033.62
388.24	248.67	88.5584	310.837	1033.85
388.58	248.897	88.6111	311.122	1034.08
388.92	249.123	88.6534	311.403	1034.3
389.26	249.351	88.7094	311.689	1034.53
389.6	249.577	88.7597	311.971	1034.76
389.94	249.803	88.7916	312.253	1034.98
390.28	250.031	88.8574	312.539	1035.21
390.62	250.256	88.9092	312.82	1035.44
390.96	250.484	88.9626	313.105	1035.66
391.3	250.71	89.0087	313.388	1035.89
391.64	250.936	89.0771	313.671	1036.12
391.98	251.164	89.122	313.956	1036.34
392.32	251.389	89.1909	314.237	1036.57
392.66	251.617	89.2588	314.522	1036.8
393	251.844	89.3167	314.804	1037.02
393.34	252.07	89.3932	315.087	1037.25
393.68	252.298	89.4493	315.372	1037.48
394.02	252.523	89.5056	315.653	1037.7
394.36	252.75	89.5585	315.938	1037.93
394.7	252.977	89.6106	316.221	1038.16
395.04	253.203	89.6526	316.504	1038.38
395.38	253.431	89.7121	316.789	1038.61
395.72	253.656	89.7721	317.07	1038.84
396.06	253.884	89.8201	317.355	1039.06
396.4	254.11	89.8991	317.637	1039.29
396.74	254.336	89.9672	317.92	1039.52
397.08	254.565	90.0273	318.206	1039.74
397.42	254.789	90.0907	318.487	1039.97
397.76	255.017	90.1431	318.771	1040.2
398.1	255.244	90.1965	319.055	1040.42
398.44	255.47	90.2496	319.337	1040.65
398.78	255.697	90.3143	319.622	1040.88
399.12	255.923	90.3606	319.903	1041.1
399.46	256.151	90.4218	320.189	1041.33
399.8	256.377	90.4707	320.471	1041.56
400.14	256.603	90.5076	320.753	1041.78
400.48	256.831	90.5599	321.039	1042.01
400.82	257.056	90.6072	321.32	1042.24
401.16	257.284	90.6483	321.605	1042.46
401.5	257.51	90.7014	321.888	1042.69
401.84	257.736	90.7666	322.171	1042.92
402.18	257.964	90.8152	322.455	1043.14
402.52	258.189	90.8851	322.737	1043.37
402.86	258.417	90.9396	323.022	1043.6
403.2	258.644	90.9879	323.304	1043.82
403.54	258.87	91.0474	323.587	1044.05
403.88	259.098	91.096	323.872	1044.28
404.22	259.323	91.1526	324.153	1044.5
404.56	259.55	91.2051	324.438	1044.73
404.9	259.777	91.2674	324.721	1044.96
405.24	260.003	91.3243	325.004	1045.18
405.58	260.231	91.3754	325.288	1045.41
405.92	260.456	91.4481	325.57	1045.64
406.26	260.684	91.4951	325.855	1045.86
406.6	260.91	91.5576	326.137	1046.09
406.94	261.136	91.6062	326.42	1046.32
407.28	261.365	91.6587	326.706	1046.54
407.62	261.589	91.7226	326.987	1046.77
407.96	261.817	91.7794	327.271	1047
408.3	262.044	91.8436	327.555	1047.22
408.64	262.27	91.9021	327.837	1047.45
408.98	262.497	91.9635	328.122	1047.68
409.32	262.723	91.9997	328.403	1047.9
409.66	262.951	92.0636	328.689	1048.13
410	263.177	92.113	328.971	1048.36
410.34	263.403	92.1481	329.253	1048.58
410.68	263.631	92.1976	329.539	1048.81
411.02	263.856	92.2398	329.82	1049.04
411.36	264.084	92.2891	330.105	1049.26
411.7	264.31	92.3451	330.388	1049.49
412.04	264.536	92.4032	330.671	1049.72
412.38	264.764	92.4471	330.955	1049.94
412.72	264.989	92.5032	331.237	1050.17
413.06	265.217	92.5651	331.522	1050.4
413.4	265.444	92.6024	331.804	1050.62
413.74	265.67	92.664	332.087	1050.85
414.08	265.898	92.716	332.372	1051.08
414.42	266.123	92.7718	332.653	1051.3
414.76	266.35	92.8223	332.938	1051.53
415.1	266.577	92.8711	333.221	1051.76
415.44	266.803	92.9194	333.504	1051.98
415.78	267.031	92.9736	333.788	1052.21
416.12	267.256	93.0376	334.07	1052.44
416.46	267.484	93.0883	334.355	1052.66
416.8	267.71	93.1579	334.637	1052.89
417.14	267.936	93.2283	334.92	1053.12
417.48	268.165	93.2971	335.206	1053.34
417.82	268.389	93.356	335.487	1053.57
418.16	268.617	93.4182	335.771	1053.8
418.5	268.844	93.4845	336.055	1054.02
418.84	269.07	93.5636	336.337	1054.25
419.18	269.297	93.645	336.622	1054.48
419.52	269.523	93.716	336.903	1054.7
419.86	269.751	93.801	337.189	1054.93
420.2	269.977	93.8847	337.471	1055.16
420.54	270.203	93.9483	337.753	1055.38
420.88	270.431	94.0259	338.039	1055.61
421.22	270.656	94.0866	338.32	1055.84
421.56	270.884	94.1355	338.605	1056.06
421.9	271.11	94.1986	338.888	1056.29
422.24	271.336	94.261	339.171	1056.52
422.58	271.564	94.2998	339.456	1056.74
422.92	271.789	94.3588	339.737	1056.97
423.26	272.017	94.4109	340.022	1057.2
423.6	272.243	94.4586	340.304	1057.42
423.94	272.47	94.5152	340.587	1057.65
424.28	272.698	94.575	340.872	1057.88
424.62	272.923	94.6308	341.153	1058.1
424.96	273.15	94.6911	341.438	1058.33
425.3	273.377	94.7565	341.721	1058.56
425.64	273.603	94.8049	342.004	1058.78
425.98	273.831	94.8623	342.288	1059.01
426.32	274.056	94.9234	342.57	1059.24
426.66	274.284	94.9795	342.855	1059.46
427	274.51	95.0381	343.137	1059.69
427.34	274.736	95.0846	343.42	1059.92
427.68	274.965	95.1321	343.706	1060.14
428.02	275.189	95.1827	343.987	1060.37
428.36	275.417	95.2101	344.271	1060.6
428.6	275.577	95.2095	344.471	1060.76