File: mechanics/data/polymer_tensile/Zugversuch_eng_ETFE-Ref+Groesseneffekt5.TRA
"aktuelle Probe"	"15"
"Einspannlänge"	832.756	"mm"
"Messlänge"	"nicht bekannt"
"Probenbreite b0"	11.9	"mm"
"Probendicke a0"	0.193	"mm"
"Prüfgeschwindigkeit"	150	"mm/min"
"Vorkraft"	0.2	"N"
"Weg nach Bruch"	5	"mm"
"E-Modul"	1089.45	"N/mm²"
"Dehnung bei Fmax"	373.47	"%"
"Dehnung bei Bruch"	373.554	"%"
"obere Streckgrenze"	"nicht bekannt"
"Kraftmaximum"	43.3088	"N/mm²"
"Bruchkraft"	"nicht bekannt"
"Geschwindigkeit E-Modul"	1	"%L0/min"
"Datum"	"20.02.2008"
"Prüfzeit"	"Standardweg"	"Standardkraft"	"Dehnung"	"Traverse abs."
"s"	"mm"	"N"	"%"	"mm"
0.0191406	2.00856e-005	0.202286	2.5107e-005	785.061
1.82914	0.0203977	0.451605	0.0254971	785.081
3.35914	0.0407427	0.822059	0.0509284	785.102
4.85914	0.0607623	1.30424	0.0759528	785.122
6.38914	0.081091	1.87936	0.101364	785.142
7.90914	0.101322	2.53439	0.126653	785.162
9.41914	0.121586	3.17767	0.151982	785.183
10.9391	0.141898	3.8305	0.177373	785.203
12.4591	0.162146	4.48381	0.202682	785.223
13.9791	0.182393	5.12521	0.227991	785.243
15.5691	0.207084	6.02533	0.258855	785.268
15.7891	0.337146	10.1711	0.421432	785.398
15.9791	0.463643	14.2327	0.579554	785.525
16.1691	0.589994	18.1484	0.737493	785.651
16.3591	0.715905	21.8517	0.894882	785.777
16.5491	0.842745	25.3397	1.05343	785.904
16.7391	0.97004	28.5863	1.21255	786.031
16.9291	1.09716	31.5398	1.37144	786.158
17.1191	1.22399	34.1414	1.52999	786.285
17.3091	1.35139	36.4475	1.68923	786.412
17.4991	1.47834	38.3977	1.84793	786.539
17.6891	1.60453	40.0019	2.00566	786.666
17.8791	1.73046	41.2866	2.16307	786.791
18.0691	1.85673	42.2954	2.32091	786.918
18.2591	1.98314	43.0616	2.47893	787.044
18.4491	2.10959	43.6571	2.63699	787.171
18.6491	2.24283	44.1103	2.80353	787.304
19.0291	2.49694	44.7253	3.12118	787.558
19.4091	2.75087	45.1336	3.43858	787.812
19.7891	3.00402	45.455	3.75503	788.065
20.1691	3.25638	45.7624	4.07048	788.317
20.5491	3.50949	46.0534	4.38687	788.57
20.9291	3.76381	46.3598	4.70476	788.825
21.3091	4.01792	46.677	5.0224	789.079
21.6891	4.27128	47.0117	5.33909	789.332
22.0691	4.52323	47.3542	5.65404	789.584
22.4491	4.7764	47.7125	5.9705	789.837
22.8291	5.02997	48.0643	6.28746	790.091
23.2091	5.28452	48.4294	6.60566	790.345
23.5891	5.53711	48.8064	6.92139	790.598
23.9691	5.78993	49.1897	7.23741	790.851
24.3491	6.04279	49.5672	7.55349	791.104
24.7291	6.29707	49.9526	7.87134	791.358
25.1091	6.55142	50.3353	8.18927	791.612
25.4891	6.80441	50.7118	8.50552	791.865
25.8691	7.05676	51.0923	8.82095	792.118
26.2491	7.30951	51.4618	9.13689	792.37
26.6291	7.56356	51.8218	9.45445	792.625
27.0091	7.81755	52.1795	9.77194	792.879
27.3891	8.07074	52.5271	10.0884	793.132
27.7691	8.32285	52.8585	10.4036	793.384
28.1491	8.5764	53.1879	10.7205	793.637
28.5291	8.83008	53.4877	11.0376	793.891
28.9091	9.08503	53.7895	11.3563	794.146
29.2891	9.33765	54.0923	11.6721	794.399
29.6691	9.59019	54.3496	11.9877	794.651
30.0491	9.84291	54.6157	12.3036	794.904
30.4291	10.0969	54.8548	12.6211	795.158
30.8091	10.351	55.0717	12.9387	795.412
31.1891	10.604	55.2795	13.255	795.665
31.5691	10.8564	55.4704	13.5705	795.917
31.9491	11.1094	55.6465	13.8868	796.17
32.3291	11.3638	55.8087	14.2048	796.425
32.7091	11.6179	55.9618	14.5224	796.679
33.0891	11.8713	56.1053	14.8391	796.932
33.4691	12.1232	56.2216	15.154	797.184
33.8491	12.3764	56.3299	15.4705	797.437
34.2291	12.6299	56.4195	15.7874	797.691
34.6091	12.8845	56.498	16.1057	797.946
34.9891	13.1371	56.5772	16.4213	798.198
35.3691	13.39	56.6438	16.7375	798.451
35.7491	13.6428	56.6862	17.0535	798.704
36.1291	13.897	56.734	17.3713	798.958
36.5091	14.1515	56.7796	17.6893	799.212
36.8891	14.4045	56.8063	18.0056	799.465
37.2691	14.6568	56.8328	18.321	799.718
37.6491	14.9095	56.8451	18.6369	799.971
38.0291	15.1636	56.8569	18.9544	800.225
38.4091	15.4176	56.8563	19.272	800.479
38.7891	15.6708	56.8509	19.5884	800.732
39.1691	15.9229	56.8448	19.9036	800.984
39.5491	16.1764	56.845	20.2205	801.237
39.9291	16.4301	56.8304	20.5376	801.491
40.3091	16.685	56.8199	20.8562	801.746
40.6891	16.9376	56.8049	21.172	801.999
41.0691	17.1902	56.7876	21.4878	802.251
41.4491	17.4429	56.7796	21.8036	802.504
41.8291	17.6969	56.7655	22.1211	802.758
42.2091	17.951	56.7452	22.4387	803.012
42.5891	18.204	56.7337	22.755	803.265
42.9691	18.4564	56.7173	23.0705	803.517
43.3491	18.7094	56.6895	23.3868	803.77
43.7291	18.9639	56.6571	23.7048	804.025
44.1091	19.2179	56.6283	24.0224	804.279
44.4891	19.4713	56.6038	24.3391	804.532
44.8691	19.7232	56.5745	24.654	804.784
45.2491	19.9764	56.5463	24.9705	805.037
45.6291	20.2299	56.5258	25.2874	805.291
46.0091	20.4846	56.4995	25.6057	805.546
46.3891	20.7371	56.486	25.9214	805.798
46.7691	20.99	56.4774	26.2375	806.051
47.1491	21.2428	56.4581	26.5535	806.304
47.5291	21.4971	56.4593	26.8713	806.558
47.9091	21.7514	56.4678	27.1892	806.812
48.2891	22.0045	56.4634	27.5056	807.065
48.6691	22.2567	56.4717	27.8209	807.318
49.0491	22.5095	56.4752	28.1369	807.57
49.4291	22.7635	56.4714	28.4544	807.825
49.8091	23.0175	56.4684	28.7719	808.079
50.1891	23.2708	56.4576	29.0885	808.332
50.5691	23.5229	56.4579	29.4036	808.584
50.9491	23.7764	56.4694	29.7205	808.837
51.3291	24.0301	56.4631	30.0376	809.091
51.7091	24.2851	56.4725	30.3564	809.346
52.0891	24.5376	56.4734	30.672	809.599
52.4691	24.7902	56.4576	30.9878	809.851
52.8491	25.0428	56.4582	31.3035	810.104
53.2291	25.2969	56.4648	31.6212	810.358
53.6091	25.551	56.4625	31.9387	810.612
53.9891	25.804	56.4705	32.255	810.865
54.3691	26.0565	56.4897	32.5706	811.117
54.7491	26.3095	56.5085	32.8868	811.37
55.1291	26.5638	56.5156	33.2048	811.625
55.5091	26.8179	56.5305	33.5224	811.879
55.8891	27.0713	56.5394	33.8391	812.132
56.2691	27.3232	56.5623	34.154	812.384
56.6491	27.5764	56.5853	34.4705	812.637
57.0291	27.83	56.6049	34.7875	812.891
57.4091	28.0845	56.6303	35.1056	813.145
57.7891	28.3371	56.6536	35.4214	813.398
58.1691	28.5898	56.6665	35.7373	813.651
58.5491	28.8428	56.6685	36.0535	813.904
58.9291	29.097	56.688	36.3712	814.158
59.3091	29.3515	56.7	36.6893	814.412
59.6891	29.6045	56.7083	37.0056	814.665
60.0691	29.8568	56.7326	37.321	814.918
60.4491	30.1096	56.7669	37.637	815.171
60.8291	30.3635	56.7858	37.9544	815.425
61.2091	30.6176	56.813	38.272	815.679
61.5891	30.8707	56.8353	38.5884	815.932
61.9691	31.1229	56.8553	38.9036	816.184
62.3491	31.3763	56.9028	39.2204	816.437
62.7291	31.6301	56.9274	39.5377	816.691
63.1091	31.885	56.9592	39.8562	816.946
63.4891	32.1376	56.9802	40.172	817.199
63.8691	32.3903	56.9896	40.4878	817.451
64.2491	32.6429	57.0031	40.8036	817.704
64.6291	32.8969	57.0222	41.1211	817.958
65.0091	33.1509	57.0355	41.4387	818.212
65.3891	33.404	57.0547	41.755	818.465
65.7691	33.6565	57.0777	42.0706	818.717
66.1491	33.9094	57.0844	42.3867	818.97
66.5291	34.1638	57.0929	42.7048	819.225
66.9091	34.4178	57.1062	43.0223	819.479
67.2891	34.6712	57.1238	43.3391	819.732
67.6691	34.9233	57.139	43.6541	819.984
68.0491	35.1764	57.1639	43.9705	820.237
68.4291	35.4299	57.1766	44.2874	820.491
68.8091	35.6846	57.1968	44.6057	820.746
69.1891	35.9371	57.2115	44.9214	820.998
69.5691	36.1899	57.2216	45.2373	821.251
69.9491	36.4428	57.2216	45.5535	821.504
70.3291	36.6971	57.2405	45.8713	821.758
70.7091	36.9515	57.2454	46.1893	822.012
71.0891	37.2045	57.2531	46.5056	822.265
71.4691	37.4568	57.274	46.821	822.518
71.8491	37.7095	57.2761	47.1369	822.77
72.2291	37.9636	57.285	47.4544	823.025
72.6091	38.2175	57.3112	47.7718	823.278
72.9891	38.4708	57.333	48.0885	823.532
73.3691	38.7228	57.354	48.4035	823.784
73.7491	38.9764	57.387	48.7205	824.037
74.1291	39.2301	57.4033	49.0377	824.291
74.5091	39.485	57.4245	49.3562	824.546
74.8891	39.7377	57.4505	49.6721	824.799
75.2691	39.9902	57.4674	49.9878	825.051
75.6491	40.2429	57.487	50.3036	825.304
76.0291	40.4969	57.506	50.6211	825.558
76.4091	40.751	57.5177	50.9387	825.812
76.7891	41.004	57.5307	51.255	826.065
77.1691	41.2564	57.5488	51.5705	826.317
77.5491	41.5094	57.5475	51.8868	826.57
77.9291	41.7637	57.5577	52.2047	826.825
78.3091	42.0179	57.5803	52.5224	827.079
78.6891	42.2713	57.5928	52.8391	827.332
79.0691	42.5232	57.6003	53.154	827.584
79.4491	42.7764	57.6138	53.4705	827.837
79.8291	43.0299	57.608	53.7874	828.091
80.2091	43.2846	57.6158	54.1058	828.346
80.5891	43.5371	57.6318	54.4214	828.598
80.9691	43.79	57.6451	54.7374	828.851
81.3491	44.0428	57.6545	55.0535	829.104
81.7291	44.2971	57.6787	55.3713	829.358
82.1091	44.5514	57.6959	55.6893	829.612
82.4891	44.8045	57.7091	56.0056	829.865
82.8691	45.0567	57.7301	56.3209	830.118
83.2491	45.3095	57.7534	56.6369	830.37
83.6291	45.5636	57.7696	56.9545	830.625
84.0091	45.8175	57.8018	57.2718	830.878
84.3891	46.0708	57.8221	57.5885	831.132
84.7691	46.3229	57.844	57.9036	831.384
85.1491	46.5764	57.8789	58.2204	831.637
85.5291	46.8301	57.8993	58.5376	831.891
85.9091	47.085	57.9264	58.8562	832.146
86.2891	47.3376	57.9631	59.172	832.399
86.6691	47.5902	57.9877	59.4878	832.651
87.0491	47.8429	58.0101	59.8036	832.904
87.4291	48.0969	58.0418	60.1211	833.158
87.8091	48.3509	58.0496	60.4387	833.412
88.1891	48.604	58.0676	60.755	833.665
88.5691	48.8565	58.0896	61.0706	833.917
88.9491	49.1094	58.0919	61.3867	834.17
89.3291	49.3638	58.106	61.7048	834.425
89.7091	49.6179	58.1259	62.0224	834.679
90.0891	49.8713	58.1455	62.3391	834.932
90.4691	50.1231	58.154	62.6539	835.184
90.8491	50.3764	58.1643	62.9706	835.437
91.2291	50.63	58.1648	63.2875	835.691
91.6091	50.8846	58.1743	63.6057	835.946
91.9891	51.1371	58.1891	63.9213	836.198
92.3691	51.39	58.1988	64.2374	836.451
92.7491	51.6428	58.1992	64.5535	836.704
93.1291	51.8971	58.2173	64.8713	836.958
93.5091	52.1514	58.2395	65.1893	837.212
93.8891	52.4045	58.2546	65.5056	837.465
94.2691	52.6567	58.2749	65.8209	837.718
94.6491	52.9095	58.2939	66.1369	837.97
95.0291	53.1636	58.3008	66.4545	838.225
95.4091	53.4176	58.3168	66.772	838.479
95.7891	53.6707	58.3166	67.0884	838.732
96.1691	53.9229	58.3204	67.4037	838.984
96.5491	54.1764	58.3386	67.7205	839.237
96.9291	54.4301	58.339	68.0377	839.491
97.3091	54.6849	58.3509	68.3562	839.746
97.6891	54.9377	58.3766	68.6721	839.999
98.0691	55.1903	58.3926	68.9878	840.251
98.4491	55.4429	58.4131	69.3036	840.504
98.8291	55.6968	58.4329	69.6211	840.758
99.2091	55.951	58.4395	69.9387	841.012
99.5891	56.204	58.4512	70.255	841.265
99.9691	56.4564	58.4678	70.5705	841.517
100.349	56.7094	58.4609	70.8868	841.77
100.729	56.9638	58.4633	71.2047	842.025
101.109	57.2179	58.4755	71.5224	842.279
101.489	57.4712	58.4816	71.839	842.532
101.869	57.7232	58.489	72.154	842.784
102.249	57.9765	58.5065	72.4706	843.037
102.629	58.2299	58.5145	72.7874	843.291
103.009	58.4845	58.5249	73.1057	843.546
103.389	58.7371	58.5412	73.4214	843.798
103.769	58.9899	58.5557	73.7374	844.051
104.149	59.2428	58.5684	74.0535	844.304
104.529	59.4971	58.5896	74.3714	844.558
104.909	59.7515	58.6097	74.6894	844.812
105.289	60.0044	58.6217	75.0055	845.065
105.669	60.2568	58.6466	75.321	845.318
106.049	60.5095	58.6632	75.6369	845.57
106.429	60.7636	58.6697	75.9545	845.825
106.809	61.0175	58.6894	76.2719	846.078
107.189	61.2708	58.7015	76.5885	846.332
107.569	61.5229	58.7165	76.9036	846.584
107.949	61.7763	58.7499	77.2204	846.837
108.329	62.0301	58.7681	77.5377	847.091
108.709	62.285	58.7896	77.8562	847.346
109.089	62.5376	58.8024	78.172	847.599
109.469	62.7903	58.8118	78.4878	847.851
109.849	63.0429	58.8287	78.8036	848.104
110.229	63.2969	58.8405	79.1211	848.358
110.609	63.551	58.8373	79.4388	848.612
110.989	63.8041	58.8541	79.7551	848.865
111.369	64.0564	58.8692	80.0706	849.117
111.749	64.3094	58.8881	80.3868	849.37
112.129	64.5638	58.9014	80.7047	849.625
112.509	64.8179	58.9148	81.0223	849.879
112.889	65.0712	58.9242	81.339	850.132
113.269	65.3232	58.9369	81.6541	850.384
113.649	65.5764	58.9566	81.9705	850.637
114.029	65.8299	58.9677	82.2874	850.891
114.409	66.0846	58.982	82.6057	851.146
114.789	66.3371	58.9995	82.9213	851.398
115.169	66.59	59.0067	83.2374	851.651
115.549	66.8428	59.0093	83.5535	851.904
115.929	67.0971	59.0274	83.8713	852.158
116.309	67.3515	59.0476	84.1893	852.412
116.689	67.6044	59.0517	84.5055	852.665
117.069	67.8568	59.0699	84.821	852.918
117.449	68.1095	59.0726	85.1369	853.17
117.829	68.3636	59.0768	85.4545	853.425
118.209	68.6175	59.0843	85.7719	853.678
118.589	68.8708	59.0875	86.0885	853.932
118.969	69.1228	59.0911	86.4036	854.184
119.349	69.3764	59.1113	86.7205	854.437
119.729	69.6301	59.1202	87.0377	854.691
120.109	69.885	59.1384	87.3563	854.946
120.489	70.1376	59.1696	87.672	855.199
120.869	70.3902	59.1862	87.9878	855.451
121.249	70.6429	59.2039	88.3036	855.704
121.629	70.8969	59.228	88.6211	855.958
122.009	71.1509	59.2332	88.9387	856.212
122.389	71.4041	59.2456	89.2551	856.465
122.769	71.6564	59.2694	89.5705	856.717
123.149	71.9094	59.286	89.8867	856.97
123.529	72.1638	59.3109	90.2047	857.225
123.909	72.4179	59.3322	90.5224	857.479
124.289	72.6712	59.3501	90.839	857.732
124.669	72.9232	59.3651	91.154	857.984
125.049	73.1765	59.3954	91.4706	858.237
125.429	73.4299	59.4256	91.7874	858.491
125.809	73.6846	59.4499	92.1057	858.746
126.189	73.9371	59.4795	92.4214	858.998
126.569	74.19	59.5055	92.7375	859.251
126.949	74.4427	59.5259	93.0534	859.504
127.329	74.6971	59.5458	93.3714	859.758
127.709	74.9514	59.5654	93.6893	860.012
128.089	75.2045	59.5792	94.0056	860.265
128.469	75.4567	59.6105	94.3209	860.518
128.849	75.7095	59.6286	94.6369	860.77
129.229	75.9636	59.643	94.9545	861.025
129.609	76.2175	59.6818	95.2718	861.278
129.989	76.4708	59.693	95.5885	861.532
130.369	76.7229	59.7118	95.9036	861.784
130.749	76.9764	59.7375	96.2205	862.037
131.129	77.2301	59.7497	96.5376	862.291
131.509	77.485	59.7685	96.8562	862.546
131.889	77.7377	59.7881	97.1721	862.799
132.269	77.9902	59.7978	97.4877	863.051
132.649	78.2429	59.8207	97.8036	863.304
133.029	78.4969	59.8445	98.1211	863.558
133.409	78.751	59.8469	98.4387	863.812
133.789	79.004	59.8694	98.755	864.065
134.169	79.2565	59.8957	99.0706	864.317
134.549	79.5094	59.9161	99.3867	864.57
134.929	79.7639	59.9357	99.7048	864.825
135.309	80.0179	59.9719	100.022	865.079
135.689	80.2712	60.0083	100.339	865.332
136.069	80.5233	60.0409	100.654	865.584
136.449	80.7763	60.0747	100.97	865.837
136.829	81.03	60.1031	101.287	866.091
137.209	81.2845	60.144	101.606	866.346
137.589	81.5372	60.1914	101.921	866.598
137.969	81.7899	60.2336	102.237	866.851
138.349	82.0428	60.2557	102.554	867.104
138.729	82.2971	60.2886	102.871	867.358
139.109	82.5514	60.3127	103.189	867.612
139.489	82.8045	60.33	103.506	867.865
139.869	83.0568	60.3569	103.821	868.118
140.249	83.3095	60.3757	104.137	868.37
140.629	83.5636	60.3969	104.454	868.625
141.009	83.8175	60.4213	104.772	868.879
141.389	84.0708	60.434	105.088	869.132
141.769	84.3229	60.4492	105.404	869.384
142.149	84.5764	60.4754	105.72	869.637
142.529	84.8301	60.4765	106.038	869.891
142.909	85.0849	60.4886	106.356	870.146
143.289	85.3376	60.5105	106.672	870.399
143.669	85.5902	60.5179	106.988	870.651
144.049	85.8429	60.5348	107.304	870.904
144.429	86.0969	60.5491	107.621	871.158
144.809	86.351	60.5558	107.939	871.412
145.189	86.604	60.5713	108.255	871.665
145.569	86.8564	60.5926	108.571	871.917
145.949	87.1094	60.6097	108.887	872.17
146.329	87.3638	60.6279	109.205	872.425
146.709	87.6179	60.6641	109.522	872.679
147.089	87.8713	60.6851	109.839	872.932
147.469	88.1232	60.7103	110.154	873.184
147.849	88.3764	60.738	110.471	873.437
148.229	88.6299	60.7504	110.787	873.691
148.609	88.8846	60.7648	111.106	873.946
148.989	89.1371	60.7908	111.421	874.198
149.369	89.39	60.8118	111.737	874.451
149.749	89.6428	60.8302	112.053	874.704
150.129	89.8971	60.8622	112.371	874.958
150.509	90.1515	60.8877	112.689	875.212
150.889	90.4044	60.9131	113.006	875.465
151.269	90.6567	60.9385	113.321	875.718
151.649	90.9095	60.954	113.637	875.971
152.029	91.1636	60.9675	113.954	876.225
152.409	91.4175	60.993	114.272	876.479
152.789	91.6707	61.0057	114.588	876.732
153.169	91.9229	61.021	114.904	876.984
153.549	92.1764	61.0486	115.22	877.237
153.929	92.4301	61.061	115.538	877.491
154.309	92.685	61.0811	115.856	877.746
154.689	92.9376	61.096	116.172	877.999
155.069	93.1902	61.1052	116.488	878.251
155.449	93.4429	61.1235	116.804	878.504
155.829	93.6969	61.1427	117.121	878.758
156.209	93.951	61.1488	117.439	879.012
156.589	94.2041	61.1743	117.755	879.265
156.969	94.4564	61.2125	118.071	879.517
157.349	94.7094	61.2263	118.387	879.77
157.729	94.9638	61.2495	118.705	880.025
158.109	95.2178	61.2785	119.022	880.279
158.489	95.4713	61.3141	119.339	880.532
158.869	95.7232	61.3392	119.654	880.784
159.249	95.9764	61.3644	119.971	881.037
159.629	96.23	61.3851	120.287	881.291
160.009	96.4846	61.4	120.606	881.546
160.389	96.7371	61.4131	120.921	881.798
160.769	96.9899	61.4233	121.237	882.051
161.149	97.2428	61.4307	121.553	882.304
161.529	97.497	61.4504	121.871	882.558
161.909	97.7515	61.4623	122.189	882.812
162.289	98.0044	61.4727	122.506	883.065
162.669	98.2568	61.5076	122.821	883.318
163.049	98.5095	61.5187	123.137	883.57
163.429	98.7635	61.5264	123.454	883.825
163.809	99.0175	61.544	123.772	884.078
164.189	99.2708	61.5479	124.088	884.332
164.569	99.5228	61.559	124.404	884.584
164.949	99.7764	61.5767	124.72	884.837
165.329	100.03	61.585	125.038	885.091
165.709	100.285	61.5935	125.356	885.346
166.089	100.538	61.6134	125.672	885.599
166.469	100.79	61.6231	125.988	885.851
166.849	101.043	61.6499	126.304	886.104
167.229	101.297	61.6833	126.621	886.358
167.609	101.551	61.7087	126.939	886.612
167.989	101.804	61.7421	127.255	886.865
168.369	102.056	61.7776	127.571	887.117
168.749	102.309	61.8049	127.887	887.37
169.129	102.564	61.8351	128.205	887.625
169.509	102.818	61.8743	128.522	887.879
169.889	103.071	61.8963	128.839	888.132
170.269	103.323	61.9168	129.154	888.384
170.649	103.576	61.9372	129.47	888.637
171.029	103.83	61.9495	129.788	888.891
171.409	104.084	61.9622	130.106	889.145
171.789	104.337	61.9876	130.421	889.398
172.169	104.59	61.9986	130.737	889.651
172.549	104.843	62.0103	131.053	889.904
172.929	105.097	62.0367	131.371	890.158
173.309	105.351	62.0552	131.689	890.412
173.689	105.604	62.0818	132.006	890.665
174.069	105.857	62.1116	132.321	890.918
174.449	106.109	62.1388	132.637	891.17
174.829	106.364	62.1603	132.954	891.425
175.209	106.618	62.1901	133.272	891.679
175.589	106.871	62.2007	133.588	891.932
175.969	107.123	62.2257	133.904	892.184
176.349	107.376	62.26	134.221	892.437
176.729	107.63	62.2791	134.538	892.691
177.109	107.885	62.306	134.856	892.946
177.489	108.138	62.3476	135.172	893.199
177.869	108.39	62.372	135.488	893.451
178.249	108.643	62.4095	135.804	893.704
178.629	108.897	62.4452	136.121	893.958
179.009	109.151	62.4618	136.439	894.212
179.389	109.404	62.4889	136.755	894.465
179.769	109.656	62.5162	137.071	894.717
180.149	109.909	62.533	137.387	894.97
180.529	110.164	62.558	137.705	895.225
180.909	110.418	62.5787	138.022	895.479
181.289	110.671	62.6097	138.339	895.732
181.669	110.923	62.6321	138.654	895.984
182.049	111.176	62.6577	138.97	896.237
182.429	111.43	62.6693	139.287	896.491
182.809	111.685	62.7014	139.606	896.746
183.189	111.937	62.732	139.921	896.998
183.569	112.19	62.7525	140.237	897.251
183.949	112.443	62.771	140.553	897.504
184.329	112.697	62.8011	140.871	897.758
184.709	112.951	62.8166	141.189	898.012
185.089	113.205	62.8396	141.506	898.266
185.469	113.457	62.8678	141.821	898.518
185.849	113.709	62.8953	142.137	898.77
186.229	113.964	62.921	142.455	899.025
186.609	114.218	62.9545	142.772	899.279
186.989	114.471	62.9711	143.088	899.532
187.369	114.723	62.9883	143.404	899.784
187.749	114.976	63.0211	143.72	900.037
188.129	115.23	63.0429	144.038	900.291
188.509	115.485	63.0628	144.356	900.546
188.889	115.738	63.0955	144.672	900.799
189.269	115.99	63.1128	144.988	901.051
189.649	116.243	63.1369	145.304	901.304
190.029	116.497	63.1624	145.621	901.558
190.409	116.751	63.1733	145.939	901.812
190.789	117.004	63.1969	146.255	902.065
191.169	117.256	63.2384	146.571	902.317
191.549	117.509	63.2673	146.887	902.57
191.929	117.764	63.2941	147.205	902.825
192.309	118.018	63.3221	147.522	903.079
192.689	118.271	63.3613	147.839	903.332
193.069	118.523	63.3908	148.154	903.584
193.449	118.776	63.419	148.471	903.837
193.829	119.03	63.444	148.787	904.091
194.209	119.285	63.4721	149.106	904.346
194.589	119.537	63.5153	149.421	904.598
194.969	119.79	63.5533	149.737	904.851
195.349	120.043	63.5843	150.053	905.104
195.729	120.297	63.6296	150.371	905.358
196.109	120.551	63.6675	150.689	905.612
196.489	120.804	63.6995	151.006	905.865
196.869	121.057	63.7391	151.321	906.118
197.249	121.31	63.7706	151.637	906.371
197.629	121.564	63.804	151.954	906.625
198.009	121.818	63.8593	152.272	906.879
198.389	122.071	63.8946	152.588	907.132
198.769	122.323	63.9273	152.904	907.384
199.149	122.576	63.9812	153.22	907.637
199.529	122.83	64.0066	153.538	907.891
199.909	123.085	64.0425	153.856	908.146
200.289	123.338	64.0908	154.172	908.399
200.669	123.59	64.1122	154.488	908.651
201.049	123.843	64.1464	154.804	908.904
201.429	124.097	64.1721	155.121	909.158
201.809	124.351	64.1951	155.439	909.412
202.189	124.604	64.22	155.755	909.665
202.569	124.856	64.2536	156.07	909.917
202.949	125.109	64.2653	156.387	910.17
203.329	125.364	64.2885	156.705	910.425
203.709	125.618	64.3166	157.022	910.679
204.089	125.871	64.3388	157.339	910.932
204.469	126.123	64.3674	157.654	911.184
204.849	126.376	64.3882	157.97	911.437
205.229	126.63	64.4018	158.287	911.691
205.609	126.885	64.4184	158.606	911.946
205.989	127.137	64.4336	158.921	912.198
206.369	127.39	64.4532	159.237	912.451
206.749	127.643	64.4683	159.553	912.704
207.129	127.897	64.4977	159.871	912.958
207.509	128.151	64.5223	160.189	913.212
207.889	128.404	64.541	160.506	913.465
208.269	128.657	64.5568	160.821	913.718
208.649	128.91	64.5758	161.137	913.97
209.029	129.164	64.6018	161.455	914.225
209.409	129.418	64.6283	161.772	914.479
209.789	129.671	64.637	162.088	914.732
210.169	129.923	64.6627	162.404	914.984
210.549	130.176	64.7077	162.72	915.237
210.929	130.43	64.7351	163.038	915.491
211.309	130.685	64.7756	163.356	915.746
211.689	130.938	64.8298	163.672	915.999
212.069	131.19	64.8616	163.988	916.251
212.449	131.443	64.9052	164.304	916.504
212.829	131.697	64.939	164.621	916.758
213.209	131.951	64.9688	164.939	917.012
213.589	132.204	65.0006	165.255	917.265
213.969	132.456	65.029	165.571	917.517
214.349	132.709	65.0421	165.887	917.77
214.729	132.964	65.0558	166.205	918.025
215.109	133.218	65.0848	166.522	918.279
215.489	133.471	65.1152	166.839	918.532
215.869	133.723	65.1487	167.154	918.784
216.249	133.976	65.1802	167.471	919.037
216.629	134.23	65.2143	167.787	919.291
217.009	134.485	65.2485	168.106	919.546
217.389	134.737	65.2847	168.421	919.798
217.769	134.99	65.3139	168.737	920.051
218.149	135.243	65.3444	169.054	920.304
218.529	135.497	65.3856	169.371	920.558
218.909	135.751	65.4225	169.689	920.812
219.289	136.004	65.4569	170.006	921.065
219.669	136.257	65.4969	170.321	921.318
220.049	136.51	65.5353	170.637	921.57
220.429	136.764	65.5713	170.954	921.825
220.809	137.018	65.6119	171.272	922.079
221.189	137.271	65.6328	171.588	922.332
221.569	137.523	65.6517	171.904	922.584
221.949	137.776	65.6834	172.22	922.837
222.329	138.03	65.7084	172.538	923.091
222.709	138.285	65.7377	172.856	923.346
223.089	138.538	65.7647	173.172	923.599
223.469	138.79	65.7881	173.488	923.851
223.849	139.043	65.8279	173.804	924.104
224.229	139.297	65.8694	174.121	924.358
224.609	139.551	65.9111	174.439	924.612
224.989	139.804	65.9637	174.755	924.865
225.369	140.056	66.0073	175.071	925.117
225.749	140.309	66.0383	175.387	925.37
226.129	140.564	66.0745	175.705	925.625
226.509	140.818	66.1146	176.022	925.879
226.889	141.071	66.15	176.339	926.132
227.269	141.323	66.1748	176.654	926.384
227.649	141.576	66.2071	176.97	926.637
228.029	141.83	66.2311	177.287	926.891
228.409	142.085	66.2596	177.606	927.146
228.789	142.337	66.2906	177.921	927.398
229.169	142.59	66.3144	178.237	927.651
229.549	142.843	66.3274	178.553	927.904
229.929	143.097	66.3503	178.871	928.158
230.309	143.351	66.3729	179.189	928.412
230.689	143.604	66.3876	179.506	928.665
231.069	143.857	66.4102	179.821	928.918
231.449	144.109	66.4335	180.137	929.17
231.829	144.364	66.4588	180.454	929.425
232.209	144.617	66.4912	180.772	929.678
232.589	144.871	66.5149	181.088	929.932
232.969	145.123	66.5418	181.404	930.184
233.349	145.376	66.5835	181.72	930.437
233.729	145.63	66.6202	182.038	930.691
234.109	145.885	66.6515	182.356	930.946
234.489	146.138	66.7018	182.672	931.199
234.869	146.39	66.7267	182.988	931.451
235.249	146.643	66.7516	183.304	931.704
235.629	146.897	66.794	183.621	931.958
236.009	147.151	66.8084	183.939	932.212
236.389	147.404	66.8275	184.255	932.465
236.769	147.656	66.8535	184.571	932.717
237.149	147.909	66.8767	184.887	932.97
237.529	148.164	66.9109	185.205	933.225
237.909	148.418	66.9554	185.522	933.479
238.289	148.671	66.9895	185.839	933.732
238.669	148.923	67.0155	186.154	933.984
239.049	149.176	67.0527	186.471	934.237
239.429	149.43	67.0856	186.787	934.491
239.809	149.685	67.1191	187.106	934.746
240.189	149.937	67.1699	187.421	934.998
240.569	150.19	67.2186	187.737	935.251
240.949	150.443	67.2691	188.053	935.504
241.329	150.697	67.3153	188.371	935.758
241.709	150.951	67.3647	188.689	936.012
242.089	151.204	67.4139	189.006	936.265
242.469	151.457	67.4643	189.321	936.518
242.849	151.709	67.5049	189.637	936.77
243.229	151.964	67.5505	189.954	937.025
243.609	152.218	67.6035	190.272	937.279
243.989	152.471	67.64	190.588	937.532
244.369	152.723	67.685	190.904	937.784
244.749	152.976	67.7328	191.22	938.037
245.129	153.23	67.763	191.538	938.291
245.509	153.485	67.8013	191.856	938.546
245.889	153.738	67.8348	192.172	938.799
246.269	153.99	67.8547	192.488	939.051
246.649	154.243	67.882	192.804	939.304
247.029	154.497	67.9089	193.121	939.558
247.409	154.751	67.9124	193.439	939.812
247.789	155.004	67.9367	193.755	940.065
248.169	155.256	67.9578	194.07	940.317
248.549	155.509	67.9823	194.387	940.57
248.929	155.764	68.02	194.705	940.825
249.309	156.018	68.0612	195.022	941.079
249.689	156.271	68.0987	195.339	941.332
250.069	156.523	68.1376	195.654	941.584
250.449	156.776	68.1803	195.97	941.837
250.829	157.03	68.235	196.287	942.091
251.209	157.285	68.2924	196.606	942.346
251.589	157.537	68.3511	196.921	942.598
251.969	157.79	68.3967	197.237	942.851
252.349	158.043	68.4445	197.554	943.104
252.729	158.297	68.5006	197.871	943.358
253.109	158.551	68.5422	198.189	943.612
253.489	158.804	68.5804	198.506	943.865
253.869	159.057	68.6155	198.821	944.118
254.249	159.309	68.6384	199.137	944.37
254.629	159.564	68.6541	199.454	944.625
255.009	159.818	68.6826	199.772	944.879
255.389	160.071	68.7006	200.088	945.132
255.769	160.323	68.7291	200.404	945.384
256.149	160.576	68.7788	200.72	945.637
256.529	160.83	68.8042	201.038	945.891
256.909	161.085	68.8419	201.356	946.146
257.289	161.338	68.8796	201.672	946.399
257.669	161.59	68.912	201.988	946.651
258.049	161.843	68.9487	202.304	946.904
258.429	162.097	68.9819	202.621	947.158
258.809	162.351	69.0077	202.939	947.412
259.189	162.604	69.0378	203.255	947.665
259.569	162.856	69.0715	203.571	947.917
259.949	163.109	69.0953	203.887	948.17
260.329	163.364	69.1319	204.205	948.425
260.709	163.618	69.1638	204.522	948.679
261.089	163.871	69.1989	204.839	948.932
261.469	164.123	69.243	205.154	949.184
261.849	164.376	69.2854	205.471	949.437
262.229	164.63	69.3165	205.787	949.691
262.609	164.885	69.358	206.106	949.945
262.989	165.137	69.4105	206.421	950.198
263.369	165.39	69.454	206.737	950.451
263.749	165.643	69.4949	207.054	950.704
264.129	165.897	69.5504	207.371	950.958
264.509	166.151	69.5946	207.689	951.212
264.889	166.404	69.6357	208.006	951.465
265.269	166.657	69.682	208.321	951.718
265.649	166.91	69.7106	208.637	951.971
266.029	167.164	69.7568	208.954	952.225
266.409	167.418	69.8073	209.272	952.478
266.789	167.671	69.8478	209.588	952.732
267.169	167.923	69.8956	209.904	952.984
267.549	168.176	69.9553	210.22	953.237
267.929	168.43	69.9983	210.538	953.491
268.309	168.685	70.0481	210.856	953.746
268.689	168.938	70.0972	211.172	953.999
269.069	169.19	70.1426	211.488	954.251
269.449	169.443	70.1898	211.804	954.504
269.829	169.697	70.2337	212.121	954.758
270.209	169.951	70.2755	212.439	955.012
270.589	170.204	70.3211	212.755	955.265
270.969	170.456	70.3642	213.071	955.517
271.349	170.709	70.3971	213.387	955.77
271.729	170.964	70.4425	213.705	956.025
272.109	171.218	70.4852	214.022	956.279
272.489	171.471	70.5326	214.339	956.532
272.869	171.723	70.5823	214.654	956.784
273.249	171.976	70.6362	214.97	957.037
273.629	172.23	70.6853	215.287	957.291
274.009	172.485	70.7271	215.606	957.546
274.389	172.737	70.769	215.921	957.798
274.769	172.99	70.803	216.237	958.051
275.149	173.243	70.8302	216.553	958.304
275.529	173.497	70.8727	216.871	958.558
275.909	173.751	70.896	217.189	958.812
276.289	174.005	70.9214	217.506	959.065
276.669	174.257	70.9608	217.821	959.318
277.049	174.51	70.9874	218.137	959.57
277.429	174.764	71.014	218.454	959.825
277.809	175.017	71.0571	218.772	960.078
278.189	175.271	71.0944	219.088	960.332
278.569	175.523	71.133	219.404	960.584
278.949	175.776	71.1886	219.72	960.837
279.329	176.03	71.2278	220.038	961.091
279.709	176.285	71.2712	220.356	961.346
280.089	176.538	71.3187	220.672	961.599
280.469	176.79	71.3521	220.988	961.851
280.849	177.043	71.4019	221.304	962.104
281.229	177.297	71.4577	221.621	962.358
281.609	177.551	71.5031	221.939	962.612
281.989	177.804	71.5522	222.255	962.865
282.369	178.056	71.6039	222.571	963.117
282.749	178.309	71.655	222.887	963.37
283.129	178.564	71.6979	223.205	963.625
283.509	178.818	71.7531	223.522	963.879
283.889	179.071	71.8029	223.839	964.132
284.269	179.323	71.8474	224.154	964.384
284.649	179.576	71.8997	224.47	964.637
285.029	179.83	71.9392	224.787	964.891
285.409	180.085	71.9764	225.106	965.145
285.789	180.337	72.0188	225.421	965.398
286.169	180.59	72.0569	225.737	965.651
286.549	180.843	72.0898	226.054	965.904
286.929	181.097	72.143	226.371	966.158
287.309	181.351	72.1945	226.689	966.412
287.689	181.604	72.2385	227.006	966.665
288.069	181.857	72.2983	227.321	966.918
288.449	182.109	72.339	227.637	967.17
288.829	182.364	72.3849	227.954	967.425
289.209	182.618	72.4341	228.272	967.679
289.589	182.871	72.4636	228.588	967.932
289.969	183.123	72.501	228.904	968.184
290.349	183.376	72.5546	229.22	968.437
290.729	183.63	72.5847	229.538	968.691
291.109	183.885	72.6209	229.856	968.946
291.489	184.138	72.6626	230.172	969.199
291.869	184.39	72.7076	230.488	969.451
292.249	184.643	72.7591	230.804	969.704
292.629	184.897	72.8129	231.121	969.958
293.009	185.151	72.8544	231.439	970.212
293.389	185.404	72.9149	231.755	970.465
293.769	185.656	72.9779	232.071	970.717
294.149	185.909	73.0417	232.387	970.97
294.529	186.164	73.1133	232.705	971.225
294.909	186.418	73.1872	233.022	971.479
295.289	186.671	73.2562	233.339	971.732
295.669	186.923	73.3195	233.654	971.984
296.049	187.176	73.3806	233.971	972.237
296.429	187.43	73.4394	234.287	972.491
296.809	187.685	73.4938	234.606	972.745
297.189	187.937	73.5601	234.921	972.998
297.569	188.19	73.6183	235.238	973.251
297.949	188.443	73.6774	235.553	973.504
298.329	188.697	73.7252	235.871	973.758
298.709	188.951	73.7743	236.189	974.012
299.089	189.204	73.8249	236.506	974.265
299.469	189.457	73.8835	236.821	974.518
299.849	189.71	73.9311	237.137	974.771
300.229	189.964	73.9687	237.454	975.025
300.609	190.218	74.0087	237.772	975.279
300.989	190.471	74.0404	238.088	975.532
301.369	190.723	74.08	238.404	975.784
301.749	190.976	74.1367	238.72	976.037
302.129	191.23	74.1729	239.038	976.291
302.509	191.485	74.2207	239.356	976.546
302.889	191.738	74.2779	239.672	976.799
303.269	191.99	74.3119	239.988	977.051
303.649	192.243	74.3712	240.304	977.304
304.029	192.497	74.4169	240.621	977.558
304.409	192.751	74.4461	240.939	977.812
304.789	193.004	74.4871	241.255	978.065
305.169	193.256	74.5345	241.571	978.317
305.549	193.509	74.5688	241.887	978.57
305.929	193.764	74.6039	242.205	978.825
306.309	194.018	74.6481	242.522	979.079
306.689	194.271	74.6901	242.839	979.332
307.069	194.523	74.7201	243.154	979.584
307.449	194.776	74.7587	243.471	979.837
307.829	195.03	74.7893	243.787	980.091
308.209	195.285	74.8173	244.106	980.346
308.589	195.537	74.846	244.421	980.598
308.969	195.79	74.8765	244.737	980.851
309.349	196.043	74.9063	245.053	981.104
309.729	196.297	74.9405	245.371	981.358
310.109	196.551	74.9745	245.689	981.612
310.489	196.804	75.0002	246.006	981.865
310.869	197.057	75.043	246.321	982.118
311.249	197.31	75.0773	246.637	982.37
311.629	197.564	75.1121	246.954	982.625
312.009	197.818	75.1636	247.272	982.879
312.389	198.071	75.2105	247.588	983.132
312.769	198.323	75.2562	247.904	983.384
313.149	198.576	75.3156	248.221	983.637
313.529	198.83	75.3631	248.538	983.891
313.909	199.085	75.4238	248.856	984.146
314.289	199.338	75.4868	249.172	984.399
314.669	199.59	75.5504	249.488	984.651
315.049	199.843	75.6143	249.804	984.904
315.429	200.097	75.675	250.121	985.158
315.809	200.351	75.721	250.439	985.412
316.189	200.604	75.779	250.755	985.665
316.569	200.856	75.8329	251.071	985.917
316.949	201.109	75.8763	251.387	986.17
317.329	201.364	75.9194	251.705	986.425
317.709	201.618	75.966	252.022	986.679
318.089	201.871	76.0058	252.339	986.932
318.469	202.123	76.0525	252.654	987.184
318.849	202.376	76.0832	252.971	987.437
319.229	202.63	76.1054	253.288	987.691
319.609	202.885	76.1308	253.606	987.945
319.989	203.137	76.168	253.921	988.198
320.369	203.39	76.202	254.237	988.451
320.749	203.643	76.2328	254.554	988.704
321.129	203.897	76.2838	254.871	988.958
321.509	204.151	76.3508	255.189	989.212
321.889	204.404	76.404	255.506	989.465
322.269	204.657	76.4699	255.821	989.718
322.649	204.91	76.5231	256.137	989.97
323.029	205.164	76.5824	256.454	990.225
323.409	205.418	76.655	256.772	990.479
323.789	205.671	76.7116	257.088	990.732
324.169	205.923	76.7766	257.404	990.984
324.549	206.176	76.8443	257.72	991.237
324.929	206.43	76.8982	258.038	991.491
325.309	206.685	76.9477	258.356	991.746
325.689	206.938	76.995	258.672	991.999
326.069	207.19	77.0284	258.988	992.251
326.449	207.443	77.0736	259.304	992.504
326.829	207.697	77.1121	259.621	992.758
327.209	207.951	77.1478	259.939	993.012
327.589	208.204	77.1983	260.255	993.265
327.969	208.456	77.2472	260.57	993.517
328.349	208.709	77.2873	260.887	993.77
328.729	208.964	77.3301	261.205	994.025
329.109	209.218	77.3738	261.522	994.279
329.489	209.471	77.4356	261.839	994.532
329.869	209.723	77.4901	262.154	994.784
330.249	209.976	77.552	262.471	995.037
330.629	210.23	77.604	262.788	995.291
331.009	210.485	77.6507	263.106	995.546
331.389	210.737	77.706	263.421	995.798
331.769	210.99	77.7566	263.737	996.051
332.149	211.243	77.7982	264.053	996.304
332.529	211.497	77.8507	264.371	996.558
332.909	211.751	77.9041	264.689	996.812
333.289	212.004	77.9552	265.006	997.065
333.669	212.257	78.0179	265.321	997.318
334.049	212.51	78.0765	265.637	997.57
334.429	212.764	78.1296	265.954	997.825
334.809	213.018	78.1956	266.272	998.079
335.189	213.271	78.2467	266.588	998.332
335.569	213.523	78.3007	266.904	998.584
335.949	213.776	78.3625	267.221	998.837
336.329	214.03	78.4184	267.538	999.091
336.709	214.285	78.4825	267.856	999.346
337.089	214.538	78.5386	268.172	999.599
337.469	214.79	78.5873	268.488	999.851
337.849	215.043	78.6527	268.804	1000.1
338.229	215.297	78.7116	269.121	1000.36
338.609	215.551	78.7654	269.439	1000.61
338.989	215.804	78.8385	269.755	1000.87
339.369	216.056	78.9142	270.071	1001.12
339.749	216.309	78.9721	270.387	1001.37
340.129	216.564	79.0449	270.705	1001.62
340.509	216.818	79.1169	271.022	1001.88
340.889	217.071	79.1839	271.339	1002.13
341.269	217.323	79.2477	271.654	1002.38
341.649	217.576	79.3018	271.97	1002.64
342.029	217.83	79.3488	272.287	1002.89
342.409	218.085	79.3903	272.606	1003.15
342.789	218.337	79.4326	272.921	1003.4
343.169	218.59	79.4632	273.237	1003.65
343.549	218.843	79.4928	273.553	1003.9
343.929	219.097	79.5478	273.871	1004.16
344.309	219.351	79.5979	274.189	1004.41
344.689	219.604	79.6376	274.506	1004.67
345.069	219.857	79.6893	274.821	1004.92
345.449	220.109	79.731	275.137	1005.17
345.829	220.364	79.7634	275.454	1005.42
346.209	220.618	79.8076	275.772	1005.68
346.589	220.871	79.8358	276.088	1005.93
346.969	221.123	79.8783	276.404	1006.18
347.349	221.376	79.9356	276.72	1006.44
347.729	221.63	79.977	277.038	1006.69
348.109	221.885	80.021	277.356	1006.95
348.489	222.138	80.0729	277.672	1007.2
348.869	222.39	80.1155	277.988	1007.45
349.249	222.643	80.1583	278.304	1007.7
349.629	222.897	80.2086	278.621	1007.96
350.009	223.151	80.2503	278.939	1008.21
350.389	223.404	80.3106	279.255	1008.46
350.769	223.656	80.3771	279.571	1008.72
351.149	223.909	80.4206	279.887	1008.97
351.529	224.164	80.4769	280.205	1009.22
351.909	224.418	80.5289	280.522	1009.48
352.289	224.671	80.5744	280.839	1009.73
352.669	224.923	80.6179	281.154	1009.98
353.049	225.176	80.6734	281.471	1010.24
353.429	225.43	80.7327	281.787	1010.49
353.809	225.685	80.7898	282.106	1010.75
354.189	225.937	80.8547	282.421	1011
354.569	226.19	80.9165	282.737	1011.25
354.949	226.443	80.9741	283.053	1011.5
355.329	226.697	81.0414	283.371	1011.76
355.709	226.951	81.1022	283.689	1012.01
356.089	227.204	81.1512	284.006	1012.27
356.469	227.457	81.2119	284.321	1012.52
356.849	227.71	81.2587	284.637	1012.77
357.229	227.964	81.2913	284.954	1013.02
357.609	228.218	81.349	285.272	1013.28
357.989	228.471	81.378	285.588	1013.53
358.369	228.723	81.4101	285.904	1013.78
358.749	228.976	81.4629	286.22	1014.04
359.129	229.23	81.5013	286.538	1014.29
359.509	229.485	81.5536	286.856	1014.55
359.889	229.738	81.6024	287.172	1014.8
360.269	229.99	81.6434	287.488	1015.05
360.649	230.243	81.6909	287.804	1015.3
361.029	230.497	81.7406	288.121	1015.56
361.409	230.751	81.7834	288.439	1015.81
361.789	231.004	81.8323	288.755	1016.07
362.169	231.256	81.8962	289.071	1016.32
362.549	231.509	81.9572	289.387	1016.57
362.929	231.764	82.022	289.705	1016.82
363.309	232.018	82.0913	290.022	1017.08
363.689	232.271	82.1488	290.339	1017.33
364.069	232.523	82.2049	290.654	1017.58
364.449	232.776	82.275	290.97	1017.84
364.829	233.03	82.3273	291.287	1018.09
365.209	233.285	82.3915	291.606	1018.35
365.589	233.537	82.4603	291.921	1018.6
365.969	233.79	82.5191	292.237	1018.85
366.349	234.043	82.5729	292.554	1019.1
366.729	234.297	82.6448	292.871	1019.36
367.109	234.551	82.7078	293.189	1019.61
367.489	234.804	82.7615	293.506	1019.87
367.869	235.057	82.8345	293.821	1020.12
368.249	235.309	82.8963	294.137	1020.37
368.629	235.564	82.9488	294.454	1020.62
369.009	235.818	83.0184	294.772	1020.88
369.389	236.071	83.0781	295.088	1021.13
369.769	236.323	83.142	295.404	1021.38
370.149	236.576	83.2081	295.721	1021.64
370.529	236.83	83.2631	296.038	1021.89
370.909	237.085	83.3315	296.356	1022.15
371.289	237.338	83.3965	296.672	1022.4
371.669	237.59	83.4531	296.988	1022.65
372.049	237.843	83.5148	297.304	1022.9
372.429	238.097	83.5894	297.621	1023.16
372.809	238.351	83.6471	297.939	1023.41
373.189	238.604	83.7105	298.255	1023.67
373.569	238.856	83.7641	298.571	1023.92
373.949	239.109	83.8137	298.887	1024.17
374.329	239.364	83.8748	299.205	1024.42
374.709	239.618	83.9381	299.522	1024.68
375.089	239.871	83.9956	299.839	1024.93
375.469	240.123	84.0537	300.154	1025.18
375.849	240.376	84.1152	300.471	1025.44
376.229	240.63	84.1709	300.787	1025.69
376.609	240.885	84.2245	301.106	1025.95
376.989	241.137	84.2831	301.421	1026.2
377.369	241.39	84.3414	301.737	1026.45
377.749	241.643	84.3941	302.053	1026.7
378.129	241.897	84.4665	302.371	1026.96
378.509	242.151	84.5436	302.689	1027.21
378.889	242.404	84.6224	303.006	1027.47
379.269	242.657	84.7099	303.321	1027.72
379.649	242.91	84.7902	303.637	1027.97
380.029	243.164	84.8708	303.954	1028.22
380.409	243.417	84.9573	304.272	1028.48
380.789	243.671	85.0286	304.588	1028.73
381.169	243.923	85.1073	304.904	1028.98
381.549	244.176	85.1925	305.22	1029.24
381.929	244.43	85.258	305.538	1029.49
382.309	244.685	85.3328	305.856	1029.75
382.689	244.938	85.4128	306.172	1030
383.069	245.19	85.4807	306.488	1030.25
383.449	245.443	85.5597	306.804	1030.5
383.829	245.697	85.6358	307.121	1030.76
384.209	245.951	85.7103	307.439	1031.01
384.589	246.204	85.786	307.755	1031.26
384.969	246.456	85.8678	308.07	1031.52
385.349	246.709	85.9232	308.387	1031.77
385.729	246.964	85.9815	308.705	1032.02
386.109	247.218	86.0412	309.022	1032.28
386.489	247.471	86.0868	309.339	1032.53
386.869	247.723	86.1335	309.654	1032.78
387.249	247.976	86.1809	309.971	1033.04
387.629	248.23	86.2288	310.287	1033.29
388.009	248.485	86.2702	310.606	1033.55
388.389	248.737	86.3169	310.921	1033.8
388.769	248.99	86.3567	311.238	1034.05
389.149	249.243	86.3874	311.553	1034.3
389.529	249.497	86.4303	311.871	1034.56
389.909	249.751	86.4855	312.189	1034.81
390.289	250.004	86.5264	312.506	1035.07
390.669	250.257	86.5745	312.821	1035.32
391.049	250.51	86.6077	313.137	1035.57
391.429	250.764	86.6359	313.454	1035.82
391.809	251.018	86.6865	313.772	1036.08
392.189	251.271	86.7265	314.088	1036.33
392.569	251.523	86.7737	314.404	1036.58
392.949	251.776	86.8345	314.72	1036.84
393.329	252.03	86.8755	315.038	1037.09
393.709	252.285	86.9316	315.356	1037.35
394.089	252.538	86.9882	315.672	1037.6
394.469	252.79	87.0264	315.988	1037.85
394.849	253.043	87.0854	316.304	1038.1
395.229	253.297	87.151	316.621	1038.36
395.609	253.551	87.2084	316.939	1038.61
395.989	253.804	87.2858	317.255	1038.86
396.369	254.056	87.3778	317.571	1039.12
396.749	254.309	87.46	317.887	1039.37
397.129	254.564	87.5448	318.205	1039.62
397.509	254.818	87.6238	318.522	1039.88
397.889	255.071	87.7048	318.839	1040.13
398.269	255.323	87.7727	319.154	1040.38
398.649	255.576	87.8407	319.471	1040.64
399.029	255.83	87.8963	319.788	1040.89
399.409	256.084	87.9443	320.106	1041.15
399.789	256.337	88.0123	320.421	1041.4
400.169	256.59	88.0693	320.737	1041.65
400.549	256.843	88.1196	321.054	1041.9
400.929	257.097	88.182	321.371	1042.16
401.309	257.351	88.2365	321.689	1042.41
401.689	257.604	88.2846	322.006	1042.67
402.069	257.857	88.3447	322.321	1042.92
402.449	258.11	88.4058	322.637	1043.17
402.829	258.364	88.4655	322.954	1043.42
403.209	258.617	88.5399	323.272	1043.68
403.589	258.871	88.5985	323.588	1043.93
403.969	259.123	88.6676	323.904	1044.18
404.349	259.376	88.7526	324.22	1044.44
404.729	259.63	88.8173	324.538	1044.69
405.109	259.885	88.8878	324.856	1044.95
405.489	260.138	88.9677	325.172	1045.2
405.869	260.39	89.0481	325.488	1045.45
406.249	260.643	89.1348	325.804	1045.7
406.629	260.897	89.2271	326.121	1045.96
407.009	261.151	89.2944	326.439	1046.21
407.389	261.404	89.3711	326.755	1046.46
407.769	261.656	89.4463	327.071	1046.72
408.149	261.909	89.5143	327.387	1046.97
408.529	262.164	89.5902	327.705	1047.22
408.909	262.418	89.6571	328.022	1047.48
409.289	262.671	89.7149	328.339	1047.73
409.669	262.923	89.7715	328.654	1047.98
410.049	263.176	89.8327	328.971	1048.24
410.429	263.43	89.8865	329.287	1048.49
410.809	263.685	89.9484	329.606	1048.75
411.189	263.937	90.0167	329.921	1049
411.569	264.19	90.086	330.237	1049.25
411.949	264.443	90.1579	330.554	1049.5
412.329	264.697	90.2532	330.871	1049.76
412.709	264.951	90.3434	331.189	1050.01
413.089	265.204	90.4359	331.506	1050.27
413.469	265.457	90.5465	331.821	1050.52
413.849	265.71	90.6446	332.137	1050.77
414.229	265.964	90.73	332.454	1051.02
414.609	266.217	90.8353	332.772	1051.28
414.989	266.471	90.9096	333.088	1051.53
415.369	266.723	90.9786	333.404	1051.78
415.749	266.976	91.0627	333.72	1052.04
416.129	267.23	91.1279	334.038	1052.29
416.509	267.485	91.203	334.356	1052.55
416.889	267.738	91.2782	334.672	1052.8
417.269	267.99	91.349	334.988	1053.05
417.649	268.243	91.4239	335.304	1053.3
418.029	268.497	91.4962	335.621	1053.56
418.409	268.751	91.5446	335.939	1053.81
418.789	269.004	91.6103	336.255	1054.06
419.169	269.256	91.6797	336.571	1054.32
419.549	269.509	91.733	336.887	1054.57
419.929	269.764	91.793	337.205	1054.82
420.309	270.018	91.8536	337.522	1055.08
420.689	270.271	91.9078	337.839	1055.33
421.069	270.523	91.9563	338.154	1055.58
421.449	270.776	92.015	338.471	1055.84
421.829	271.03	92.081	338.787	1056.09
422.209	271.285	92.1448	339.106	1056.35
422.589	271.537	92.2227	339.421	1056.6
422.969	271.79	92.2932	339.737	1056.85
423.349	272.043	92.3615	340.053	1057.1
423.729	272.297	92.4411	340.371	1057.36
424.109	272.551	92.5057	340.689	1057.61
424.489	272.805	92.5641	341.006	1057.87
424.869	273.057	92.6312	341.321	1058.12
425.249	273.31	92.6823	341.637	1058.37
425.629	273.564	92.7475	341.955	1058.62
426.009	273.818	92.8149	342.272	1058.88
426.389	274.071	92.8615	342.589	1059.13
426.769	274.323	92.9183	342.904	1059.38
427.149	274.576	92.9852	343.22	1059.64
427.529	274.83	93.0286	343.538	1059.89
427.909	275.085	93.0955	343.856	1060.15
428.289	275.338	93.167	344.172	1060.4
428.669	275.59	93.23	344.488	1060.65
429.049	275.843	93.3053	344.804	1060.9
429.429	276.097	93.384	345.121	1061.16
429.809	276.351	93.4558	345.439	1061.41
430.189	276.604	93.5247	345.755	1061.67
430.569	276.856	93.609	346.071	1061.92
430.949	277.109	93.6828	346.387	1062.17
431.329	277.364	93.7614	346.705	1062.42
431.709	277.618	93.8372	347.022	1062.68
432.089	277.871	93.9105	347.339	1062.93
432.469	278.123	93.9876	347.654	1063.18
432.849	278.376	94.0583	347.97	1063.44
433.229	278.63	94.127	348.288	1063.69
433.609	278.885	94.189	348.606	1063.95
433.989	279.137	94.2649	348.921	1064.2
434.369	279.39	94.3413	349.237	1064.45
434.749	279.643	94.4084	349.554	1064.7
435.129	279.897	94.482	349.871	1064.96
435.509	280.151	94.5537	350.189	1065.21
435.889	280.404	94.6165	350.506	1065.47
436.269	280.657	94.6861	350.821	1065.72
436.649	280.91	94.7436	351.137	1065.97
437.029	281.164	94.8157	351.454	1066.22
437.409	281.417	94.8981	351.772	1066.48
437.789	281.671	94.9667	352.088	1066.73
438.169	281.923	95.0415	352.404	1066.98
438.549	282.176	95.125	352.72	1067.24
438.929	282.43	95.1993	353.038	1067.49
439.309	282.685	95.2874	353.356	1067.75
439.689	282.938	95.3703	353.672	1068
440.069	283.19	95.4554	353.988	1068.25
440.449	283.443	95.5397	354.304	1068.5
440.829	283.697	95.6128	354.621	1068.76
441.209	283.951	95.6824	354.939	1069.01
441.589	284.204	95.7517	355.255	1069.26
441.969	284.456	95.8122	355.571	1069.52
442.349	284.709	95.8661	355.887	1069.77
442.729	284.964	95.919	356.205	1070.02
443.109	285.218	95.982	356.522	1070.28
443.489	285.471	96.0266	356.839	1070.53
443.869	285.723	96.0805	357.154	1070.78
444.249	285.976	96.1397	357.471	1071.04
444.629	286.23	96.1884	357.787	1071.29
445.009	286.485	96.2462	358.106	1071.55
445.389	286.737	96.3114	358.421	1071.8
445.769	286.99	96.3641	358.737	1072.05
446.149	287.243	96.4236	359.054	1072.3
446.529	287.497	96.4971	359.371	1072.56
446.909	287.751	96.5576	359.689	1072.81
447.289	288.004	96.6172	360.006	1073.07
447.669	288.257	96.6916	360.321	1073.32
448.049	288.51	96.7645	360.637	1073.57
448.429	288.764	96.8406	360.954	1073.82
448.809	289.017	96.93	361.272	1074.08
449.189	289.271	97.0072	361.588	1074.33
449.569	289.523	97.0923	361.904	1074.58
449.949	289.776	97.1841	362.22	1074.84
450.329	290.03	97.2597	362.538	1075.09
450.709	290.285	97.341	362.856	1075.35
451.089	290.538	97.4167	363.172	1075.6
451.469	290.79	97.4759	363.488	1075.85
451.849	291.043	97.5327	363.804	1076.1
452.229	291.297	97.5946	364.121	1076.36
452.609	291.551	97.6372	364.439	1076.61
452.989	291.804	97.695	364.755	1076.87
453.369	292.056	97.7545	365.07	1077.12
453.749	292.309	97.7973	365.387	1077.37
454.129	292.564	97.8457	365.705	1077.62
454.509	292.818	97.897	366.022	1077.88
454.889	293.071	97.9576	366.339	1078.13
455.269	293.323	98.0247	366.654	1078.38
455.649	293.576	98.0933	366.971	1078.64
456.029	293.83	98.1592	367.287	1078.89
456.409	294.085	98.2317	367.606	1079.15
456.789	294.337	98.3019	367.921	1079.4
457.169	294.59	98.3798	368.237	1079.65
457.549	294.843	98.4481	368.553	1079.9
457.929	295.097	98.5326	368.871	1080.16
458.309	295.351	98.6144	369.189	1080.41
458.689	295.604	98.6932	369.506	1080.67
459.069	295.857	98.7937	369.821	1080.92
459.449	296.11	98.8814	370.137	1081.17
459.829	296.364	98.9519	370.454	1081.42
460.209	296.618	99.0231	370.772	1081.68
460.589	296.871	99.0754	371.088	1081.93
460.969	297.123	99.1311	371.404	1082.18
461.349	297.376	99.1967	371.72	1082.44
461.729	297.63	99.2409	372.038	1082.69
462.109	297.885	99.2959	372.356	1082.95
462.489	298.138	99.3594	372.672	1083.2
462.869	298.39	99.4001	372.988	1083.45
463.249	298.643	99.4529	373.304	1083.7
463.549	298.843	99.4565	373.554	1083.9